# Sensor type: Respeck
# Activity type: Climbing stairs
# Activity code: 12
# Subject id: s1918275
# Notes: 
timestamp,accel_x,accel_y,accel_z,gyro_x,gyro_y,gyro_z
1664629165141,0.04248047,-1.0276489,-0.012512207,13.453125,8.0,1.15625
1664629165173,0.014160156,-0.9668579,0.009216309,14.75,4.578125,2.03125
1664629165215,0.036376953,-1.0186157,0.0289917,16.453125,4.84375,0.859375
1664629165260,0.04296875,-0.99664307,0.010681152,12.84375,4.703125,3.5625
1664629165292,0.021240234,-0.9636841,-0.022521973,15.609375,5.390625,4.390625
1664629165377,0.0053710938,-0.97369385,-0.014709473,12.265625,4.3125,4.515625
1664629165384,-0.0041503906,-0.9837036,-0.02130127,11.703125,10.203125,4.84375
1664629165411,-0.16015625,-0.9595337,-0.04522705,15.578125,16.796875,2.203125
1664629165471,0.09423828,-0.9846802,-0.12261963,3.796875,14.25,4.828125
1664629165488,0.28759766,-1.0569458,-0.077941895,11.71875,-3.546875,9.265625
1664629165545,-0.038085938,-1.0769653,-0.069885254,9.34375,-6.859375,9.90625
1664629165574,0.103027344,-1.3530884,-0.14019775,8.78125,-15.8125,7.21875
1664629165605,0.061767578,-1.548645,-0.27618408,-15.390625,-23.375,11.3125
1664629165669,0.7663574,-1.5408325,-0.33892822,0.46875,2.671875,13.1875
1664629165680,0.6706543,-1.0440063,-0.33062744,1.515625,-34.578125,10.0625
1664629165726,-0.061523438,-0.66192627,-0.109191895,14.171875,-20.734375,15.65625
1664629165774,0.32104492,-0.71954346,0.01361084,-2.5625,-3.4375,2.203125
1664629165801,0.40576172,-1.0733032,-0.09576416,-7.390625,-19.8125,0.28125
1664629165848,0.25708008,-0.8484497,-0.11602783,-2.5625,-13.640625,1.9375
1664629165922,0.453125,-0.85284424,0.03753662,-7.0,-22.0625,7.84375
1664629165927,-0.0026855469,-0.8779907,0.027282715,1.5625,-18.1875,-1.5625
1664629165968,-0.0546875,-0.394104,-0.086242676,11.6875,5.171875,4.75
1664629166025,0.10620117,-0.35406494,-0.054504395,0.859375,15.078125,13.796875
1664629166041,0.3100586,-0.9380493,0.003112793,-7.9375,13.234375,13.015625
1664629166103,0.31054688,-1.2166138,-0.04107666,-17.765625,13.9375,23.8125
1664629166116,0.47583008,-1.31427,-0.040100098,6.3125,17.71875,10.203125
1664629166176,0.37963867,-1.0510864,-0.097229004,18.875,10.890625,-7.140625
1664629166207,0.63183594,-1.0725708,-0.12701416,4.71875,22.703125,-13.1875
1664629166237,0.54785156,-1.4280396,-0.30596924,1.15625,10.078125,-4.890625
1664629166297,0.14550781,-0.83380127,-0.3526001,9.59375,11.765625,-24.5
1664629166328,0.32788086,-0.5750122,-0.27374268,1.1875,16.34375,-6.84375
1664629166358,0.28735352,-1.0652466,-0.20587158,-1.671875,15.59375,-10.21875
1664629166403,0.11694336,-1.0117798,-0.16363525,4.53125,-2.484375,-8.375
1664629166431,0.119628906,-0.6018677,-0.09576416,9.109375,8.65625,-5.875
1664629166478,-0.0637207,-0.57818604,-0.13189697,8.609375,21.890625,-8.640625
1664629166526,0.23217773,-0.71099854,-0.19146729,10.375,22.0625,-2.59375
1664629166553,0.23364258,-0.78790283,-0.1572876,3.03125,5.0,6.734375
1664629166627,-0.0048828125,-1.1609497,-0.15802002,-11.640625,1.890625,5.21875
1664629166641,0.095947266,-1.5332642,-0.24664307,-3.71875,13.421875,-4.4375
1664629166673,0.43652344,-1.1785278,-0.34136963,-2.375,8.8125,-5.953125
1664629166733,0.13134766,-1.2439575,-0.49639893,0.34375,7.0625,-9.6875
1664629166745,0.68066406,-0.9883423,-0.20855713,-0.203125,-7.890625,6.234375
1664629166806,0.28857422,-0.8567505,-0.1326294,-4.359375,-8.578125,3.09375
1664629166838,0.19311523,-0.9031372,-0.20465088,-4.515625,0.0,1.296875
1664629166868,0.3840332,-0.9685669,-0.02130127,-10.453125,-9.046875,2.9375
1664629166911,0.1977539,-0.862854,-0.081848145,2.984375,-9.828125,2.28125
1664629166957,0.083740234,-0.5835571,-0.12872314,18.359375,-6.125,3.984375
1664629166985,0.21875,-0.43927002,-0.13433838,14.546875,-6.78125,18.71875
1664629167030,0.26904297,-0.6777954,-0.09991455,4.5625,-10.15625,19.5
1664629167075,0.24633789,-0.9902954,-0.11578369,6.25,-0.15625,16.671875
1664629167107,0.37719727,-1.3330688,-0.08795166,-0.921875,-2.015625,12.078125
1664629167151,0.33154297,-1.3255005,-0.0725708,14.5,-1.0,-3.109375
1664629167191,0.17285156,-1.0540161,-0.20855713,-3.84375,13.265625,-19.625
1664629167243,0.7050781,-1.1123657,-0.5276489,12.4375,4.359375,0.03125
1664629167275,0.39941406,-1.0401001,-0.32232666,-6.046875,-10.921875,-7.5
1664629167302,-0.06567383,-0.8491821,-0.38238525,-4.3125,-6.8125,-12.03125
1664629167362,0.3071289,-1.0037231,-0.21173096,-0.390625,-2.46875,-10.75
1664629167392,0.20361328,-0.79107666,-0.16851807,10.109375,-12.6875,-2.140625
1664629167423,0.064941406,-0.48516846,-0.20562744,9.453125,-2.34375,1.640625
1664629167466,0.15576172,-0.48443604,-0.18414307,19.609375,1.546875,2.640625
1664629167499,0.109375,-0.6795044,-0.19683838,11.375,4.25,4.171875
1664629167544,0.14233398,-1.1687622,-0.17364502,5.390625,4.65625,-0.15625
1664629167585,0.22363281,-1.3518677,-0.31671143,-3.203125,7.765625,3.25
1664629167615,0.37963867,-1.1245728,-0.29400635,-5.671875,-3.984375,-0.828125
1664629167659,0.5397949,-1.0078735,-0.5733032,-12.53125,-22.8125,8.921875
1664629167724,0.29541016,-1.0549927,-0.39093018,10.703125,8.640625,4.171875
1664629167739,0.96606445,-1.0093384,-0.22735596,3.046875,-15.609375,1.203125
1664629167798,0.12915039,-1.0200806,-0.16607666,1.515625,-20.53125,6.96875
1664629167873,0.041503906,-0.8989868,-0.2041626,8.65625,0.328125,-4.0
1664629167880,0.46655273,-0.7107544,-0.13580322,1.875,-6.34375,8.75
1664629167907,0.15771484,-0.58843994,-0.1885376,6.71875,-14.03125,4.890625
1664629167938,0.17944336,-0.48638916,-0.14776611,5.796875,-7.140625,10.234375
1664629167989,0.2956543,-0.5996704,-0.19976807,-2.25,-9.546875,16.171875
1664629168021,0.33618164,-0.93341064,-0.13116455,5.015625,-2.0,12.28125
1664629168050,0.34448242,-1.098938,-0.12799072,1.8125,-2.6875,7.265625
1664629168096,0.25854492,-1.2254028,-0.17608643,3.96875,11.96875,-1.75
1664629168138,0.22167969,-1.0994263,-0.46368408,26.90625,25.828125,-10.375
1664629168171,0.56225586,-0.8406372,-0.81988525,-2.09375,15.421875,-19.046875
1664629168219,0.69189453,-1.1560669,-0.37457275,-11.078125,-11.609375,20.015625
1664629168244,0.110839844,-0.80059814,-0.4451294,2.59375,-4.484375,-10.65625
1664629168292,0.31640625,-0.65093994,-0.2835083,1.09375,5.640625,-11.546875
1664629168351,0.27612305,-0.91070557,-0.28009033,-1.171875,10.375,-4.4375
1664629168368,0.15209961,-0.7415161,-0.2576294,-0.8125,1.171875,-1.21875
1664629168424,0.13305664,-0.44732666,-0.21392822,7.03125,6.984375,-7.3125
1664629168455,0.10961914,-0.53375244,-0.24859619,3.96875,13.15625,-2.109375
1664629168487,0.22021484,-0.7359009,-0.23883057,1.90625,12.421875,1.90625
1664629168547,0.24536133,-1.0376587,-0.31915283,-6.296875,13.671875,4.484375
1664629168576,0.39453125,-1.4924927,-0.411438,-19.234375,20.734375,3.78125
1664629168605,0.4074707,-1.3772583,-0.18341064,-15.6875,-14.546875,-3.53125
1664629168653,0.26733398,-1.0720825,-0.5508423,-3.5,-8.8125,-13.296875
1664629168681,0.3605957,-0.7300415,-0.47149658,8.65625,-6.4375,1.96875
1664629168726,0.8244629,-0.81134033,-0.22149658,-4.921875,-9.453125,-0.375
1664629168773,0.17578125,-1.0161743,-0.27593994,-6.953125,-28.265625,8.359375
1664629168805,0.02758789,-0.8833618,-0.101135254,0.46875,-10.375,2.953125
1664629168848,0.31591797,-0.7185669,-0.08331299,-2.703125,-2.4375,1.734375
1664629168908,0.17871094,-0.60528564,-0.19976807,4.078125,-9.78125,4.609375
1664629168934,0.07055664,-0.4854126,-0.15557861,6.734375,-12.71875,5.859375
1664629168980,0.31762695,-0.5198364,-0.1026001,5.546875,-5.71875,15.53125
1664629168996,0.2849121,-0.84161377,-0.10015869,3.359375,-5.859375,17.890625
1664629169056,0.38916016,-1.2539673,-0.19024658,4.90625,-1.84375,12.578125
1664629169086,0.5678711,-1.5440063,-0.16314697,12.71875,-11.359375,-0.171875
1664629169117,0.30444336,-1.2127075,-0.29742432,24.171875,-0.078125,-22.71875
1664629169191,0.3828125,-1.1028442,-0.66070557,28.765625,9.875,-24.59375
1664629169205,0.6333008,-0.9614868,-0.36187744,4.109375,-23.28125,2.09375
1664629169240,0.42773438,-0.70098877,-0.4541626,-9.15625,-12.03125,-18.46875
1664629169280,0.21704102,-0.7817993,-0.41583252,-6.390625,-15.875,-11.0625
1664629169328,0.23461914,-0.98931885,-0.19342041,-9.25,-16.484375,-19.046875
1664629169356,0.22583008,-0.6873169,-0.21759033,1.625,-17.171875,-17.109375
1664629169407,0.13012695,-0.45269775,-0.2119751,5.75,-12.421875,-15.09375
1664629169430,0.2536621,-0.5237427,-0.19903564,6.53125,-23.125,-12.59375
1664629169477,0.23168945,-0.411438,-0.14776611,10.546875,-29.78125,-5.203125
1664629169535,-0.05444336,-0.39752197,-0.14581299,4.84375,-28.09375,-2.453125
1664629169550,-0.17382812,-0.67315674,-0.13067627,13.421875,-1.84375,-10.171875
1664629169611,0.09350586,-1.2817993,-0.22564697,10.984375,5.171875,-5.8125
1664629169650,0.17919922,-1.8916626,-0.3340454,15.34375,-4.3125,2.703125
1664629169672,-0.10449219,-1.8753052,-0.109191895,5.625,-8.21875,-9.71875
1664629169716,0.16308594,-1.3369751,-0.25177002,-17.0625,-2.234375,3.4375
1664629169745,0.5102539,-0.94195557,-0.31378174,-3.609375,-10.859375,-10.0625
1664629169793,0.5510254,-0.8687134,-0.4776001,-5.515625,-16.828125,2.21875
1664629169838,0.97021484,-0.7407837,-0.26861572,4.046875,5.234375,-13.171875
1664629169873,0.5229492,-0.97491455,-0.38848877,-12.03125,-12.703125,-8.375
1664629169911,0.66674805,-0.88726807,-0.2649536,5.671875,-26.90625,-12.015625
1664629169955,0.34936523,-0.7991333,-0.15582275,10.015625,-42.59375,-9.25
1664629169989,-0.08105469,-0.55303955,-0.11895752,20.96875,-42.171875,-12.28125
1664629170032,0.040283203,-0.3460083,-0.25030518,19.671875,-26.15625,-16.734375
1664629170059,0.41455078,-0.550354,-0.08746338,13.078125,-36.0,-3.40625
1664629170122,0.17651367,-0.74957275,-0.08355713,1.53125,-52.359375,-10.3125
1664629170150,2.4414062E-4,-0.65875244,0.028259277,13.859375,-35.484375,-17.453125
1664629170182,0.12939453,-0.8652954,0.016052246,-8.125,-35.046875,-15.0
1664629170242,0.48950195,-1.0664673,0.047058105,-6.65625,-33.640625,-23.8125
1664629170271,0.11450195,-1.1047974,-0.042297363,1.890625,-46.671875,-31.5625
1664629170300,0.04248047,-1.3840942,-0.35992432,-7.328125,-10.5625,-39.578125
1664629170347,1.2382812,-1.5935669,-0.39263916,-5.359375,-45.46875,-1.453125
1664629170394,-0.08691406,-0.6248169,-0.1951294,-2.765625,-59.546875,10.046875
1664629170422,-0.10839844,-0.82769775,-0.011291504,-7.3125,-13.375,-42.5625
1664629170497,0.63623047,-1.628479,-0.3110962,13.984375,-39.96875,-11.28125
1664629170505,0.39648438,-0.5288696,-0.14678955,18.375,-56.328125,-9.453125
1664629170583,-0.1171875,-0.5335083,-0.18804932,14.234375,-63.9375,-21.5
1664629170591,0.11328125,-0.9175415,-0.09991455,22.515625,-48.34375,-11.0
1664629170618,0.19946289,-0.9192505,-0.14093018,14.546875,-59.75,-5.9375
1664629170690,-0.13183594,-0.78204346,-0.08453369,16.640625,-53.015625,-11.125
1664629170704,0.12207031,-0.88897705,0.015075684,10.984375,-44.359375,-4.453125
1664629170734,0.049072266,-1.1045532,-0.11090088,-2.828125,-44.46875,-6.140625
1664629170809,0.08984375,-1.1531372,-0.18634033,8.078125,-26.71875,-8.203125
1664629170815,0.5744629,-1.255188,-0.456604,-5.578125,-30.265625,-5.9375
1664629170885,1.2004395,-0.9468384,-0.2559204,12.5625,-101.3125,16.828125
1664629170900,-0.1694336,-1.1870728,-0.11846924,-7.328125,-77.71875,5.453125
1664629170930,-0.17456055,-1.2422485,-0.23297119,29.578125,-46.53125,-14.828125
1664629170976,0.8376465,-0.9924927,-0.08087158,17.125,-41.34375,6.890625
1664629171021,0.25878906,-0.77423096,-0.120910645,8.5,-59.4375,-1.578125
1664629171051,-0.092041016,-0.8567505,-0.09161377,18.359375,-42.421875,1.0625
1664629171098,0.3383789,-0.69976807,0.035095215,14.9375,-34.671875,6.359375
1664629171158,0.17285156,-0.5706177,-0.03717041,12.734375,-35.734375,2.21875
1664629171174,0.21142578,-0.7144165,0.0038452148,6.46875,-34.234375,5.96875
1664629171231,0.2331543,-0.9121704,0.12860107,7.609375,-26.078125,5.15625
1664629171246,0.12597656,-1.0530396,0.030944824,8.125,-24.328125,5.28125
1664629171323,0.1809082,-1.3618774,0.06585693,4.796875,0.640625,-1.640625
1664629171337,0.5161133,-1.4136353,-0.26446533,23.421875,-3.640625,-23.390625
1664629171367,1.3010254,-1.5010376,-0.74053955,34.703125,-18.71875,-3.84375
1664629171441,0.29125977,-0.878479,-0.2727661,14.90625,-40.859375,-8.3125
1664629171458,0.38867188,-0.53619385,-0.6567993,10.796875,-11.484375,-12.734375
1664629171489,0.65649414,-1.0291138,-0.23297119,9.15625,-16.109375,-0.03125
1664629171535,0.4050293,-1.0320435,-0.30474854,13.453125,-37.28125,-12.0
1664629171563,0.07836914,-0.5288696,-0.21221924,18.71875,-30.296875,-15.328125
1664629171606,0.15820312,-0.54400635,-0.24420166,18.734375,-3.328125,-16.703125
1664629171651,0.27001953,-0.6565552,-0.2210083,17.578125,-7.546875,-10.765625
1664629171680,0.20410156,-0.631897,-0.2300415,19.234375,-12.5,-7.265625
1664629171763,0.19799805,-0.75201416,-0.20245361,10.703125,-11.984375,-7.734375
1664629171772,0.1784668,-1.086731,-0.2617798,3.015625,-7.21875,-8.109375
1664629171814,0.27392578,-1.3674927,-0.27496338,-5.15625,0.671875,-15.15625
1664629171861,0.4736328,-1.1829224,-0.4920044,-9.25,-10.171875,-9.78125
1664629171896,0.5197754,-1.1377563,-0.50445557,-14.140625,-17.8125,-9.859375
1664629171921,0.58618164,-0.84552,-0.30670166,-2.40625,-17.6875,-8.1875
1664629171965,0.7319336,-0.9404907,-0.27642822,-1.625,-32.140625,-7.3125
1664629171999,0.1784668,-0.95196533,-0.22784424,1.03125,-37.9375,-7.515625
1664629172043,0.14550781,-0.7527466,-0.21148682,10.375,-20.59375,-13.40625
1664629172087,0.23779297,-0.7385864,-0.17584229,4.546875,-15.328125,-3.890625
1664629172117,0.35302734,-0.616272,-0.19366455,13.0625,-19.484375,1.015625
1664629172160,0.20239258,-0.47296143,-0.24664307,8.796875,-25.1875,13.265625
1664629172207,0.16674805,-0.7415161,-0.20123291,3.828125,-22.421875,15.9375
1664629172235,0.21459961,-1.1155396,-0.08868408,3.8125,-10.09375,6.109375
1664629172283,0.18188477,-1.12677,-0.17633057,9.609375,5.75,5.578125
1664629172311,0.34887695,-1.0567017,-0.16851807,5.640625,8.9375,-5.171875
1664629172357,0.31933594,-1.112854,-0.25445557,-2.28125,15.125,-15.546875
1664629172416,0.6916504,-1.1841431,-0.73443604,1.375,2.9375,-6.703125
1664629172430,0.3774414,-0.9187622,-0.4932251,0.3125,-6.921875,4.828125
1664629172490,-0.06542969,-0.71295166,-0.34039307,0.171875,16.359375,-12.171875
1664629172529,0.34155273,-0.7815552,-0.29522705,-3.09375,7.546875,-11.328125
1664629172551,0.19995117,-0.802063,-0.2539673,0.90625,4.0625,-0.15625
1664629172597,0.06323242,-0.61553955,-0.25030518,0.90625,8.71875,2.5625
1664629172655,0.10180664,-0.5835571,-0.26104736,4.75,9.046875,-4.5625
1664629172671,0.1274414,-0.61505127,-0.2871704,5.703125,14.5625,1.25
1664629172716,0.24291992,-0.70928955,-0.29351807,6.828125,12.578125,6.265625
1664629172747,0.07788086,-1.0418091,-0.2822876,-4.46875,2.140625,2.21875
1664629172791,0.017333984,-1.4155884,-0.41119385,-7.484375,19.25,4.71875
1664629172835,0.47436523,-1.3904419,-0.3032837,-11.828125,17.703125,5.515625
1664629172865,0.390625,-1.1184692,-0.4981079,-17.875,-14.140625,1.421875
1664629172910,0.31420898,-0.9837036,-0.487854,-0.703125,0.84375,-3.453125
1664629172986,1.0458984,-0.82354736,-0.20562744,-6.625,-7.25,-2.578125
1664629173005,0.31469727,-0.944397,-0.27520752,-12.203125,-37.9375,5.28125
1664629173063,-0.057617188,-0.7295532,-0.2600708,8.390625,-19.234375,-0.140625
1664629173069,0.32739258,-0.7732544,-0.14776611,7.671875,-8.6875,-0.90625
1664629173120,0.28515625,-0.8369751,-0.1531372,4.34375,-13.890625,0.828125
1664629173151,0.140625,-0.54693604,-0.17755127,9.421875,-20.03125,2.78125
1664629173183,0.16772461,-0.44708252,-0.15875244,10.921875,-7.015625,11.0
1664629173228,0.22265625,-0.82281494,-0.23736572,1.0625,-7.84375,18.203125
1664629173270,0.42358398,-1.1177368,-0.13067627,7.46875,4.203125,12.46875
1664629173302,0.42993164,-1.305481,-0.22589111,8.296875,-2.75,11.28125
1664629173346,0.33813477,-1.2451782,-0.16656494,4.03125,7.453125,0.578125
1664629173376,0.39208984,-1.1069946,-0.30181885,9.359375,18.96875,-17.921875
1664629173420,0.6533203,-1.1660767,-0.678772,17.015625,12.71875,-13.390625
1664629173481,0.22851562,-0.82647705,-0.5413208,-0.546875,0.40625,0.8125
1664629173498,0.0847168,-0.76446533,-0.43389893,-1.609375,9.25,-10.234375
1664629173572,0.35327148,-0.77423096,-0.37335205,-0.265625,6.203125,-9.03125
1664629173585,0.17871094,-0.70098877,-0.2588501,-4.0,-2.359375,-0.640625
1664629173615,0.040771484,-0.59869385,-0.20855713,-2.390625,-0.671875,-3.0
1664629173676,0.11376953,-0.46783447,-0.23394775,-0.359375,5.75,-7.640625
1664629173705,0.19335938,-0.48883057,-0.255188,9.203125,11.65625,-0.546875
1664629173736,0.25854492,-0.7852173,-0.15484619,13.65625,8.859375,-2.34375
1664629173780,0.08569336,-1.1289673,-0.26739502,-4.078125,2.921875,-3.078125
1664629173810,0.02368164,-1.4207153,-0.43829346,-9.78125,3.9375,-7.0
1664629173856,0.23022461,-1.4512329,-0.36773682,-15.171875,7.859375,0.5
1664629173902,0.2331543,-1.1445923,-0.55841064,-24.15625,2.3125,-5.984375
1664629173931,0.40112305,-0.86431885,-0.44976807,-11.53125,16.109375,-16.734375
1664629173975,1.0009766,-0.87042236,-0.2930298,-10.21875,-11.15625,7.015625
1664629174036,0.15185547,-0.8960571,-0.23712158,-13.296875,-28.453125,6.9375
1664629174055,0.020019531,-0.8040161,-0.25299072,-0.953125,-9.015625,-0.84375
1664629174111,0.37768555,-0.75665283,-0.09820557,-5.078125,-2.953125,8.90625
1664629174126,0.22875977,-0.7583618,-0.12017822,1.0,-8.921875,6.203125
1664629174187,0.16918945,-0.5545044,-0.1795044,11.21875,-12.390625,10.59375
1664629174220,0.22509766,-0.47369385,-0.16192627,8.109375,-16.859375,15.1875
1664629174247,0.1496582,-0.80181885,-0.144104,10.1875,-11.078125,12.1875
1664629174321,0.14746094,-1.0505981,-0.12701416,11.265625,2.640625,10.84375
1664629174335,0.12182617,-1.274231,-0.21099854,3.453125,12.640625,9.921875
1664629174367,0.5114746,-1.3596802,-0.14117432,17.265625,21.671875,-5.640625
1664629174411,0.38354492,-1.210022,-0.48931885,-10.671875,8.515625,-10.921875
1664629174458,0.86450195,-1.1436157,-0.5027466,14.9375,-1.40625,9.828125
1664629174485,0.06738281,-0.82598877,-0.44732666,-6.203125,-2.890625,-8.046875
1664629174533,0.10986328,-0.6675415,-0.40777588,-3.046875,4.5625,-13.1875
1664629174560,0.3125,-0.88360596,-0.2637329,-3.90625,-4.84375,-12.390625
1664629174606,0.09790039,-0.6567993,-0.2539673,-4.265625,-1.125,-1.234375
1664629174666,0.11376953,-0.585022,-0.22003174,4.6875,7.9375,-3.203125
1664629174682,0.17211914,-0.5845337,-0.2678833,6.03125,5.71875,-2.015625
1664629174743,0.20605469,-0.57354736,-0.28546143,14.515625,7.953125,4.203125
1664629174772,0.1772461,-0.7510376,-0.29083252,9.84375,-1.46875,5.796875
1664629174801,0.12768555,-1.0813599,-0.32574463,-0.078125,2.109375,5.40625
1664629174863,0.1237793,-1.4727173,-0.3184204,-2.46875,7.0625,0.34375
1664629174877,0.32836914,-1.447815,-0.36065674,-10.359375,8.828125,7.203125
1664629174921,0.33325195,-1.1358032,-0.63287354,-15.84375,-7.59375,-2.828125
1664629174966,0.3942871,-0.98638916,-0.48931885,2.609375,6.109375,-7.78125
1664629174996,0.8208008,-0.80474854,-0.20196533,-8.640625,-5.3125,-1.515625
1664629175042,0.24609375,-0.8723755,-0.22784424,-11.96875,-16.875,-6.3125
1664629175086,-0.056396484,-0.86383057,-0.2678833,3.09375,-4.890625,-8.0
1664629175115,0.35595703,-0.81866455,-0.13458252,3.59375,3.203125,-1.96875
1664629175163,0.30322266,-0.7761841,-0.2444458,-8.765625,-4.453125,0.765625
1664629175221,0.084228516,-0.6206665,-0.13873291,2.640625,-6.1875,4.703125
1664629175239,0.1665039,-0.59576416,-0.11138916,-0.265625,-2.546875,11.15625
1664629175296,0.103027344,-0.7007446,-0.14703369,0.203125,3.671875,13.890625
1664629175310,0.15454102,-0.7407837,-0.23590088,-2.46875,5.21875,15.71875
1664629175373,0.43164062,-1.0166626,-0.17779541,4.0625,7.703125,15.03125
1664629175404,0.41552734,-1.2869263,-0.2156372,4.875,0.078125,18.359375
1664629175434,0.44995117,-1.3557739,-0.21051025,12.09375,12.671875,4.4375
1664629175477,0.34594727,-1.1887817,-0.50909424,19.328125,7.921875,-16.5625
1664629175555,0.8781738,-1.3130493,-0.5498657,12.03125,-8.40625,9.421875
1664629175559,-0.04638672,-0.8352661,-0.36309814,-1.46875,-10.21875,9.046875
1664629175626,0.095703125,-0.6387329,-0.28692627,4.46875,18.9375,-21.4375
1664629175632,0.46362305,-0.8543091,-0.37628174,-3.5625,22.375,-10.546875
1664629175672,0.11669922,-0.86846924,-0.3267212,-2.09375,5.203125,3.078125
1664629175719,0.21801758,-0.5911255,-0.32696533,-0.015625,11.671875,-4.6875
1664629175747,0.20751953,-0.5733032,-0.22906494,3.5,8.953125,-2.609375
1664629175791,0.13916016,-0.60772705,-0.23443604,4.828125,11.109375,3.578125
1664629175850,0.20019531,-0.64630127,-0.21099854,4.875,5.375,2.9375
1664629175866,0.17602539,-0.7605591,-0.26446533,4.65625,3.234375,1.875
1664629175926,0.1105957,-1.1589966,-0.28424072,-3.875,5.953125,5.515625
1664629175958,0.21899414,-1.538147,-0.41168213,-7.734375,13.671875,-2.390625
1664629175985,0.4645996,-1.3494263,-0.56622314,-4.765625,-7.390625,0.078125
1664629176030,0.2783203,-1.1160278,-0.7576294,7.15625,7.015625,-5.046875
1664629176062,0.9953613,-1.0288696,-0.40533447,-10.640625,-23.25,6.140625
1664629176106,0.54956055,-0.86920166,-0.19073486,-4.390625,-43.71875,2.25
1664629176151,-0.18798828,-0.87750244,-0.25909424,0.109375,-33.390625,-3.765625
1664629176181,0.18457031,-0.74786377,-0.17681885,9.0625,-7.9375,-5.875
1664629176226,0.4453125,-0.63116455,-0.1260376,1.609375,-10.765625,3.40625
1664629176272,0.064453125,-0.4578247,-0.18487549,-2.34375,-17.671875,3.765625
1664629176303,0.07543945,-0.34014893,-0.12213135,9.015625,-6.796875,6.71875
1664629176364,0.31762695,-0.55255127,-0.17633057,1.28125,-2.0,12.265625
1664629176374,0.47021484,-0.7468872,-0.1506958,4.140625,-15.109375,10.90625
1664629176438,0.23876953,-1.0994263,-0.24737549,-6.328125,-23.34375,14.328125
1664629176466,0.27734375,-1.7774048,-0.024963379,4.15625,0.71875,7.21875
1664629176502,0.4050293,-1.5567017,-0.15899658,16.0625,-1.421875,-17.15625
1664629176557,0.5437012,-1.03302,-0.42315674,0.078125,3.765625,-23.78125
1664629176586,0.9458008,-1.1682739,-0.43292236,16.25,-8.5625,-3.9375
1664629176615,0.30981445,-0.7263794,-0.552063,-5.53125,-29.890625,-9.203125
1664629176664,0.16699219,-0.57403564,-0.37042236,0.3125,-10.21875,-20.703125
1664629176691,0.24609375,-0.9807739,-0.19122314,-5.640625,-5.578125,-23.109375
1664629176737,0.16674805,-0.82647705,-0.11529541,-5.78125,-12.09375,-19.15625
1664629176783,0.06958008,-0.5508423,-0.21710205,-11.953125,-4.078125,-14.484375
1664629176811,0.27978516,-0.64385986,-0.18365479,-8.390625,-4.5,-18.296875
1664629176887,0.14331055,-0.6897583,-0.13800049,-0.859375,-12.1875,-12.71875
1664629176900,0.095947266,-0.61602783,-0.09576416,-0.640625,-10.5625,-10.421875
1664629176932,-0.005859375,-0.6487427,-0.10455322,-1.234375,-14.34375,-7.40625
1664629176990,-0.1899414,-0.84698486,-0.12042236,5.96875,-4.390625,-8.21875
1664629177068,0.010009766,-1.024231,-0.17730713,3.765625,-7.5625,-7.296875
1664629177075,-0.06591797,-1.1494751,-0.270813,-0.921875,-11.015625,-12.359375
1664629177096,-0.016601562,-1.3369751,-0.40509033,-2.6875,2.625,-15.328125
1664629177126,0.45751953,-1.586731,0.0040893555,-14.078125,29.515625,-4.59375
1664629177192,0.7351074,-0.75665283,-0.32647705,-8.171875,-9.9375,-5.9375
1664629177218,0.47583008,-0.7329712,-0.17315674,-5.65625,-25.578125,-1.0
1664629177247,0.2097168,-1.0703735,-0.057434082,-12.953125,-40.859375,2.671875
1664629177291,0.49316406,-1.1939087,-0.10089111,-4.078125,-28.546875,-4.390625
1664629177336,0.19824219,-0.85772705,-0.09234619,0.53125,-37.046875,-2.203125
1664629177365,-0.12573242,-0.8357544,0.02532959,8.625,-27.296875,-8.859375
1664629177443,0.21679688,-0.64678955,-0.03765869,6.78125,-21.046875,-6.65625
1664629177447,0.19873047,-0.6375122,0.08001709,10.515625,-11.421875,-11.53125
1664629177487,0.007080078,-0.80670166,-0.0025024414,0.453125,-23.640625,-9.1875
1664629177546,0.14819336,-0.75177,0.09173584,-2.546875,-18.171875,-11.96875
1664629177560,0.18676758,-0.9524536,0.047058105,1.765625,-18.140625,-22.3125
1664629177621,0.08105469,-1.2227173,0.0053100586,10.046875,-27.890625,-31.890625
1664629177651,0.09277344,-1.5369263,0.026794434,3.421875,-27.046875,-20.171875
1664629177681,0.31518555,-1.279602,-0.20489502,1.03125,-30.5625,-32.359375
1664629177730,0.59643555,-0.9805298,-0.6231079,9.96875,-45.84375,-7.578125
1664629177772,0.60595703,-1.2105103,-0.24591064,-7.4375,-48.734375,15.203125
1664629177802,0.07128906,-1.0501099,-0.09210205,2.109375,-72.53125,-11.234375
1664629177845,-0.0075683594,-0.8250122,-0.22442627,13.96875,-67.703125,-16.859375
1664629177878,0.091552734,-0.8242798,-0.2041626,15.4375,-72.515625,-1.609375
1664629177923,0.0061035156,-0.88238525,-0.17974854,21.046875,-75.75,-17.578125
1664629177967,0.140625,-0.8567505,-0.086242676,26.671875,-76.6875,-10.96875
1664629177996,-0.16308594,-1.0266724,-0.04425049,26.75,-70.84375,-11.234375
1664629178041,-0.1953125,-0.80670166,0.021911621,25.5,-52.109375,-10.953125
1664629178118,0.0859375,-0.79229736,-0.057434082,-3.828125,-48.75,-1.28125
1664629178123,-0.23828125,-1.1255493,0.001159668,-12.328125,-32.421875,-9.0
1664629178190,-0.104003906,-1.1199341,0.016540527,-11.59375,-1.5,-5.703125
1664629178193,0.5107422,-1.0488892,-0.25689697,-23.140625,-17.296875,-0.71875
1664629178250,1.0195312,-1.2302856,-0.43389893,-9.3125,-44.8125,-2.203125
1664629178288,0.5559082,-0.8960571,-0.50079346,15.5,-88.84375,1.671875
1664629178314,-0.23803711,-1.2957153,-0.17364502,7.0625,-69.578125,9.09375
1664629178359,0.103515625,-1.1426392,-0.093566895,15.640625,-46.46875,0.28125
1664629178403,0.26342773,-0.7920532,-0.24493408,10.390625,-56.90625,-0.375
1664629178432,0.16821289,-0.8657837,6.713867E-4,10.90625,-48.0,0.65625
1664629178475,-0.0063476562,-0.95391846,0.018005371,6.5625,-35.03125,3.578125
1664629178523,0.20043945,-0.74176025,-0.04058838,16.390625,-38.671875,-0.9375
1664629178550,0.30249023,-0.6524048,-0.013000488,10.8125,-35.9375,6.375
1664629178601,0.28857422,-0.83599854,0.01751709,14.46875,-39.09375,7.609375
1664629178626,0.091796875,-0.89801025,0.05731201,19.6875,-38.625,6.703125
1664629178671,0.005859375,-0.9846802,0.005065918,11.375,-31.6875,0.328125
1664629178732,0.24926758,-1.399231,0.12664795,30.640625,6.734375,4.53125
1664629178745,-0.0925293,-1.631897,-0.38238525,35.171875,0.109375,-11.203125
1664629178807,0.9863281,-1.2463989,-0.69854736,39.265625,-3.4375,2.09375
1664629178836,0.6064453,-1.1033325,-0.4607544,5.828125,-15.453125,13.453125
1664629178866,0.23632812,-0.6194458,-0.69659424,8.671875,-2.75,-3.59375
1664629178911,0.81689453,-0.84332275,-0.5315552,16.890625,-13.859375,2.890625
1664629178941,0.49121094,-1.010315,-0.489563,2.015625,-30.15625,-8.609375
1664629178987,0.006591797,-0.76763916,-0.19171143,14.65625,-27.921875,-22.359375
1664629179033,0.12939453,-0.57476807,-0.26934814,13.125,-2.171875,-20.5
1664629179065,0.26245117,-0.65509033,-0.23077393,2.09375,-7.421875,-17.03125
1664629179106,0.084472656,-0.5906372,-0.19439697,1.78125,-12.40625,-11.734375
1664629179154,0.12133789,-0.5772095,-0.26690674,-3.578125,-9.71875,-12.359375
1664629179180,0.2763672,-0.75665283,-0.27960205,-4.359375,-12.15625,-3.140625
1664629179243,0.19995117,-1.0149536,-0.29205322,-0.28125,-11.21875,-2.484375
1664629179274,0.31103516,-1.4155884,-0.3328247,-12.640625,-13.484375,-17.609375
1664629179303,0.4411621,-1.3833618,-0.4644165,-2.796875,-14.90625,-4.78125
1664629179377,0.13330078,-0.96881104,-0.48614502,-10.03125,-18.703125,-12.109375
1664629179381,0.7597656,-0.923645,-0.3164673,-2.53125,-3.5625,-6.875
1664629179451,0.5666504,-0.83428955,-0.2859497,-1.609375,-27.953125,2.0
1664629179467,0.10449219,-0.6741333,-0.37408447,1.171875,-25.5625,-12.125
1664629179498,0.3630371,-0.85943604,-0.16119385,2.28125,-22.34375,-4.390625
1664629179543,0.27978516,-1.045227,-0.15435791,-1.65625,-20.21875,-5.390625
1664629179588,0.1796875,-0.7991333,-0.1975708,5.5625,-13.984375,-1.34375
1664629179616,0.1875,-0.5713501,-0.17047119,13.4375,-11.15625,6.390625
1664629179660,0.22460938,-0.5779419,-0.14117432,5.28125,-20.5625,8.171875
1664629179690,0.103271484,-0.77227783,-0.13433838,9.1875,-14.046875,7.0625
1664629179735,0.14648438,-0.9065552,-0.15093994,9.0625,-13.671875,13.28125
1664629179800,0.45776367,-1.0298462,-0.22515869,9.671875,-7.21875,7.53125
1664629179814,0.49975586,-1.3630981,-0.14385986,4.96875,6.875,-0.546875
1664629179871,0.19799805,-1.2300415,-0.2744751,18.109375,0.796875,-14.734375
1664629179918,0.7001953,-1.1560669,-0.7102661,6.796875,0.59375,-3.09375
1664629179933,0.38354492,-0.84942627,-0.4492798,7.8125,-20.109375,3.078125
1664629179993,-0.09790039,-0.6843872,-0.39361572,0.3125,8.375,-17.15625
1664629180005,0.27197266,-0.99298096,-0.36212158,-1.71875,7.15625,-8.796875
1664629180066,0.203125,-1.0410767,-0.3394165,0.546875,2.125,-6.59375
1664629180096,0.10473633,-0.69537354,-0.30523682,3.203125,0.21875,-3.65625
1664629180125,0.18041992,-0.5261841,-0.2600708,4.8125,1.53125,-6.46875
1664629180171,0.17333984,-0.5862427,-0.2312622,4.640625,-2.21875,-2.859375
1664629180222,0.08618164,-0.6314087,-0.23931885,2.8125,-4.203125,-0.140625
1664629180245,0.18383789,-0.7583618,-0.24029541,4.03125,-1.71875,3.453125
1664629180291,0.028808594,-1.1880493,-0.27667236,-16.1875,-4.28125,-2.453125
1664629180367,0.055908203,-1.4177856,-0.3723755,-13.28125,7.875,-5.21875
1664629180373,0.47558594,-1.2561646,-0.3826294,-23.8125,4.359375,-0.953125
1664629180425,0.26342773,-0.8970337,-0.52130127,-2.90625,-1.46875,-1.53125
1664629180442,0.7614746,-0.85723877,-0.19781494,-8.953125,-4.90625,0.328125
1664629180501,0.5480957,-1.1548462,-0.22003174,-14.859375,-23.625,-7.40625
1664629180533,-0.21923828,-1.0440063,-0.36431885,5.484375,-17.015625,-11.9375
1664629180562,0.33251953,-0.8562622,-0.12237549,4.328125,3.625,1.484375
1664629180605,0.39916992,-0.8789673,-0.17462158,-1.875,-13.421875,4.203125
1664629180687,-0.025634766,-0.5835571,-0.1819458,10.34375,-19.625,6.296875
1664629180692,0.14746094,-0.36846924,-0.12823486,4.296875,-5.671875,20.40625
1664629180769,0.20800781,-0.6511841,-0.14556885,4.953125,-2.1875,18.546875
1664629180774,0.123535156,-0.9981079,-0.09844971,5.546875,2.8125,8.21875
1664629180830,0.35766602,-1.2634888,-0.15435791,2.1875,6.234375,7.328125
1664629180846,0.3930664,-1.1709595,-0.16119385,3.484375,1.984375,-6.609375
1664629180877,0.22949219,-1.0056763,-0.23931885,10.390625,7.46875,-16.0625
1664629180951,0.578125,-1.0903931,-0.7659302,18.125,20.40625,-5.234375
1664629180966,0.2783203,-1.1130981,-0.4944458,-0.546875,-13.46875,6.296875
1664629181004,0.04736328,-0.6235962,-0.42022705,-11.546875,3.046875,-10.15625
1664629181041,0.38476562,-0.6782837,-0.3032837,-0.890625,3.8125,-2.203125
1664629181118,0.15332031,-1.0137329,-0.31085205,5.171875,-4.828125,-4.328125
1664629181122,0.0075683594,-0.6868286,-0.19708252,6.390625,-4.921875,-0.125
1664629181191,0.0871582,-0.55255127,-0.2468872,0.984375,5.390625,-4.09375
1664629181198,0.16381836,-0.61016846,-0.23345947,9.9375,12.203125,-1.640625
1664629181238,0.15356445,-0.7151489,-0.27227783,7.28125,7.5625,7.046875
1664629181282,0.24316406,-0.9463501,-0.29229736,0.828125,5.171875,5.953125
1664629181312,0.19067383,-1.2669067,-0.37677002,-4.890625,3.078125,1.5625
1664629181357,0.33447266,-1.4312134,-0.3760376,-0.046875,1.921875,6.671875
1664629181405,0.39990234,-1.2278442,-0.62164307,-14.4375,-13.734375,8.203125
1664629181430,0.2578125,-0.99835205,-0.5305786,7.625,1.484375,-5.75
1664629181476,1.0385742,-0.9475708,-0.33599854,2.5625,-2.640625,3.921875
1664629181505,0.30200195,-0.90582275,-0.21026611,-18.5,-28.140625,1.578125
1664629181551,-0.016845703,-0.89312744,-0.26837158,2.15625,-15.125,-9.203125
1664629181610,0.33325195,-0.8555298,-0.101867676,0.140625,-9.625,-0.046875
1664629181626,0.27368164,-0.58258057,-0.17706299,1.640625,-10.8125,0.765625
1664629181687,0.13769531,-0.40899658,-0.23956299,8.453125,-15.234375,6.125
1664629181715,0.19970703,-0.45611572,-0.12017822,12.125,-7.984375,11.109375
1664629181745,0.16040039,-0.66607666,-0.29400635,6.484375,-16.609375,10.578125
1664629181792,0.40600586,-1.0266724,-0.23297119,10.03125,-3.953125,17.71875
1664629181837,0.5109863,-1.4778442,-0.21002197,5.71875,-4.921875,21.453125
1664629181867,0.19873047,-1.4241333,-0.15875244,15.5,9.109375,-2.734375
1664629181911,0.28173828,-1.0249634,-0.36895752,-9.6875,10.375,-24.203125
1664629181940,1.2695312,-1.0747681,-0.85601807,18.203125,10.609375,8.5625
1664629182016,0.052978516,-0.87823486,-0.38531494,4.484375,-4.0625,6.71875
1664629182033,-0.020263672,-0.5425415,-0.45269775,-7.484375,15.71875,-18.96875
1664629182061,0.5031738,-0.75250244,-0.25811768,-2.0625,16.171875,-9.3125
1664629182122,0.03466797,-0.7803345,-0.26617432,-5.109375,12.59375,-0.4375
1664629182150,0.06616211,-0.51104736,-0.30426025,-5.296875,16.484375,-7.84375
1664629182181,0.23242188,-0.46246338,-0.2727661,-1.15625,12.640625,-6.453125
1664629182241,0.17749023,-0.56695557,-0.30377197,2.859375,12.90625,2.375
1664629182256,0.23071289,-0.6099243,-0.3435669,6.390625,2.3125,7.5625
1664629182316,0.33154297,-0.71051025,-0.41314697,12.125,-12.015625,13.578125
1664629182345,0.0012207031,-1.2085571,-0.27105713,6.390625,3.09375,18.109375
1664629182375,0.026367188,-1.6834106,-0.34332275,-13.34375,21.0625,-9.03125
1664629182420,0.38671875,-1.6130981,-0.68536377,-14.1875,29.671875,1.5625
1664629182468,0.3984375,-1.0750122,-0.7268677,-17.90625,14.8125,4.390625
1664629182496,0.85009766,-0.86676025,-0.37628174,-8.28125,12.671875,-2.90625
1664629182541,0.6501465,-0.7017212,-0.40582275,-7.28125,-25.140625,-0.03125
1664629182600,-0.06323242,-0.7073364,-0.23614502,5.4375,-5.71875,4.71875
1664629182616,0.41235352,-0.72857666,-0.25201416,-4.921875,3.59375,5.25
1664629182679,0.43310547,-0.80255127,-0.19903564,-1.328125,-5.5625,11.25
1664629182694,0.17553711,-0.65338135,-0.21710205,4.84375,-12.40625,8.609375
1664629182752,0.21826172,-0.45489502,-0.18414307,8.515625,-11.390625,9.46875
1664629182785,0.22949219,-0.6033325,-0.1807251,6.140625,-7.359375,10.140625
1664629182809,0.33422852,-0.8010864,-0.2276001,-1.71875,-11.09375,10.453125
1664629182871,0.19482422,-0.9714966,-0.333313,-2.34375,-7.140625,7.28125
1664629182903,0.55444336,-1.3088989,-0.21417236,-4.4375,1.8125,4.140625
1664629182930,0.31054688,-1.4002075,-0.2354126,-3.765625,-7.21875,-13.5
1664629182974,0.49145508,-1.2214966,-0.33770752,7.046875,7.078125,-24.796875
1664629183005,0.7302246,-1.1587524,-0.6030884,-0.296875,-2.078125,-2.96875
1664629183057,0.031982422,-0.7012329,-0.35357666,-4.71875,-4.296875,-15.671875
1664629183095,0.3503418,-0.61505127,-0.36602783,0.203125,17.75,-16.09375
1664629183129,0.42773438,-0.90875244,-0.3982544,4.125,19.890625,-8.0
1664629183170,0.19604492,-0.78302,-0.34820557,8.359375,-10.453125,-3.65625
1664629183246,0.040771484,-0.40826416,-0.19537354,6.671875,3.3125,-3.28125
1664629183249,0.23803711,-0.4944458,-0.23736572,7.84375,6.140625,-3.203125
1664629183323,0.15722656,-0.63531494,-0.25128174,7.46875,4.5,1.640625
1664629183326,0.19921875,-0.8960571,-0.22540283,9.296875,2.25,3.109375
1664629183379,0.16845703,-1.5125122,-0.2571411,-18.171875,9.8125,8.484375
1664629183409,0.11254883,-1.4221802,-0.43218994,-18.15625,8.90625,-4.9375
1664629183441,0.59472656,-1.0442505,-0.538147,-19.234375,10.421875,-12.140625
1664629183491,0.5234375,-0.9290161,-0.59625244,-10.0625,-15.375,-5.515625
1664629183536,0.70288086,-0.8069458,-0.24395752,-1.78125,-15.875,-7.84375
1664629183561,0.3347168,-1.0110474,-0.24908447,-7.796875,-31.90625,-8.0
1664629183605,0.07861328,-0.84576416,-0.23077393,4.84375,-18.859375,-5.203125
1664629183680,0.296875,-0.72662354,-0.15289307,10.390625,-9.5625,-2.15625
1664629183684,0.2548828,-0.6211548,-0.12628174,1.234375,-20.03125,7.953125
1664629183725,0.10205078,-0.5015259,-0.13311768,5.484375,-14.40625,5.28125
1664629183755,0.2006836,-0.647522,-0.17218018,1.625,-11.296875,9.0
1664629183801,0.25976562,-1.0022583,-0.07891846,4.65625,-11.78125,8.203125
1664629183867,0.2553711,-1.2710571,-0.06719971,6.53125,-7.765625,-1.515625
1664629183875,0.25219727,-1.2727661,-0.0725708,-1.828125,-4.390625,-7.71875
1664629183935,0.07714844,-0.99713135,-0.19781494,-6.390625,7.59375,-15.40625
1664629183964,0.37548828,-1.003479,-0.5964966,6.703125,20.8125,-27.28125
1664629183994,0.7854004,-1.1445923,-0.46710205,3.484375,-0.515625,10.71875
1664629184041,-0.041015625,-0.79766846,-0.37994385,5.59375,-3.765625,-3.71875
1664629184074,0.16235352,-0.8386841,-0.26593018,0.0625,3.640625,-17.234375
1664629184121,0.18676758,-0.91729736,-0.25030518,2.40625,1.640625,-3.75
1664629184160,0.12011719,-0.6692505,-0.18682861,3.5,4.546875,0.171875
1664629184201,0.07714844,-0.5474243,-0.25421143,4.421875,1.3125,-2.5
1664629184237,0.036621094,-0.58843994,-0.21466064,3.109375,8.390625,-0.90625
1664629184311,0.068603516,-0.7490845,-0.21002197,8.921875,11.8125,3.671875
1664629184315,-0.044189453,-1.0042114,-0.16046143,-2.46875,19.984375,-0.140625
1664629184358,0.1430664,-1.2471313,-0.29840088,-10.375,14.34375,0.203125
1664629184415,0.32055664,-1.4094849,-0.25909424,-11.046875,11.8125,4.015625
1664629184429,0.38964844,-1.1704712,-0.40582275,-14.734375,-2.25,5.609375
1664629184504,0.14379883,-1.0825806,-0.5161743,-2.921875,-5.828125,-8.125
1664629184507,0.798584,-0.99176025,-0.3821411,0.796875,-0.59375,1.484375
1664629184580,0.48168945,-0.99468994,-0.20343018,-5.640625,-29.046875,7.3125
1664629184596,-0.02758789,-0.8936157,-0.24884033,6.859375,-20.203125,1.296875
1664629184625,0.28735352,-0.7883911,-0.13018799,6.34375,-11.390625,3.453125
1664629184670,0.24926758,-0.81622314,-0.13800049,-0.375,-17.921875,7.015625
1664629184717,0.08251953,-0.67510986,-0.10845947,5.3125,-10.953125,2.5
1664629184748,0.22460938,-0.56695557,-0.15167236,7.65625,-7.46875,6.640625
1664629184790,0.22338867,-0.67755127,-0.112854004,4.125,-14.703125,9.640625
1664629184821,0.16601562,-0.7749634,-0.12554932,4.3125,-9.203125,9.046875
1664629184866,0.13842773,-0.8023071,-0.14581299,10.765625,-3.828125,17.5625
1664629184910,0.13012695,-1.0320435,-0.06768799,3.5625,2.421875,23.6875
1664629184942,0.21582031,-1.3508911,-0.10479736,0.796875,20.96875,11.96875
1664629185007,0.7663574,-1.4282837,-0.38970947,19.578125,16.21875,-19.65625
1664629185034,0.9707031,-1.4085083,-0.65509033,20.953125,-9.34375,-4.21875
1664629185061,0.22387695,-0.87945557,-0.3965454,-0.6875,-35.34375,-0.5
1664629185123,-0.001953125,-0.4993286,-0.4505005,15.4375,12.546875,-23.875
1664629185153,0.40283203,-0.9163208,-0.27496338,5.5625,9.734375,-14.125
1664629185192,0.2055664,-0.9578247,-0.27227783,-2.125,-4.96875,-11.953125
1664629185225,0.17993164,-0.62457275,-0.25128174,-0.21875,-12.984375,-13.953125
1664629185255,0.13964844,-0.5640259,-0.20050049,2.65625,-7.40625,-16.234375
1664629185301,0.14990234,-0.6404419,-0.25030518,5.28125,-6.828125,-11.28125
1664629185347,0.16455078,-0.62628174,-0.23052979,6.25,-12.875,-7.34375
1664629185375,0.1459961,-0.8364868,-0.25030518,3.765625,-15.96875,-4.6875
1664629185422,0.060546875,-1.206604,-0.27056885,-3.5,-13.765625,-7.71875
1664629185482,0.10180664,-1.581604,-0.284729,-2.828125,-13.1875,-12.671875
1664629185497,0.15893555,-1.3499146,-0.21173096,-9.8125,-13.28125,-10.171875
1664629185557,0.15356445,-1.1306763,-0.33599854,-21.859375,-19.5,-13.578125
1664629185572,0.49438477,-0.93292236,-0.45806885,1.65625,-13.65625,-18.9375
1664629185629,0.9995117,-0.8123169,-0.23468018,-3.640625,-33.859375,3.453125
1664629185662,0.34814453,-0.927063,-0.027648926,-9.234375,-56.328125,8.3125
1664629185689,-0.15551758,-0.8882446,-0.042541504,-2.234375,-45.859375,-13.65625
1664629185751,0.20605469,-0.7686157,-0.070617676,12.0625,-27.28125,-15.5625
1664629185782,0.3178711,-0.673645,-0.15045166,14.015625,-34.578125,-8.09375
1664629185811,0.19458008,-0.5598755,-0.101135254,12.796875,-41.859375,-1.40625
1664629185889,0.07739258,-0.5942993,-0.07574463,6.609375,-45.125,0.109375
1664629185902,0.088378906,-0.69073486,0.016784668,6.078125,-33.375,-2.875
1664629185936,0.08862305,-0.8411255,0.06463623,4.03125,-32.578125,-4.203125
1664629185978,0.010253906,-0.9668579,0.05291748,12.359375,-24.640625,-8.484375
1664629186004,0.30932617,-0.9776001,0.057800293,26.359375,-40.84375,-12.546875
1664629186052,-0.027832031,-1.0059204,0.020202637,12.359375,-35.65625,-21.8125
1664629186109,0.11645508,-1.2017212,-0.37335205,4.53125,-15.015625,-30.625
1664629186126,0.95654297,-1.5703735,-0.30718994,0.640625,-30.046875,-24.3125
1664629186188,0.099853516,-0.9155884,-0.2432251,-8.109375,-50.84375,-2.796875
1664629186218,0.06298828,-0.5462036,-0.2930298,-1.125,-5.578125,-24.859375
1664629186246,0.7741699,-1.4805298,-0.36846924,-1.125,-34.953125,-8.3125
1664629186306,0.20214844,-0.9998169,-0.15924072,9.203125,-56.09375,-9.859375
1664629186321,-0.08325195,-0.5923462,-0.2312622,15.9375,-50.46875,-19.6875
1664629186381,0.11279297,-0.77130127,-0.13238525,13.015625,-34.625,-20.203125
1664629186412,0.1496582,-0.7686157,-0.19683838,12.40625,-58.21875,-14.53125
1664629186440,0.010986328,-0.7407837,-0.14141846,5.0,-62.640625,-11.21875
1664629186488,-0.024658203,-0.92071533,-0.015686035,14.765625,-53.890625,-7.546875
1664629186533,0.11621094,-0.942688,-0.07965088,-8.453125,-50.15625,0.875
1664629186579,0.35424805,-1.0274048,-0.26617432,-5.609375,-52.40625,-1.875
1664629186604,-0.23242188,-1.2993774,-0.23638916,8.171875,-44.953125,-13.65625
1664629186634,0.3137207,-1.1895142,-0.1831665,-8.9375,3.96875,-6.890625
1664629186680,1.2275391,-0.62945557,-0.12530518,25.9375,-69.9375,12.71875
1664629186740,-0.32910156,-1.0540161,-0.16802979,6.28125,-71.796875,-4.828125
1664629186754,0.07348633,-1.1726685,-0.11627197,15.359375,-49.890625,0.796875
1664629186814,0.66796875,-0.895813,-0.031311035,10.796875,-58.34375,6.265625
1664629186845,-0.1472168,-1.0964966,0.0289917,9.140625,-55.9375,1.5
1664629186874,-0.008056641,-0.9710083,0.0138549805,22.90625,-33.75,-1.734375
1664629186920,0.4091797,-0.7554321,0.0079956055,13.953125,-24.53125,-1.171875
1664629186997,0.2529297,-0.85650635,-0.066711426,15.9375,-29.578125,2.9375
1664629187005,0.328125,-0.84552,-0.023498535,15.359375,-36.203125,5.640625
1664629187079,0.18481445,-0.833313,0.026550293,20.59375,-30.375,4.328125
1664629187084,0.07739258,-0.96759033,-0.019592285,12.40625,-27.859375,4.359375
1664629187147,0.3310547,-1.4216919,0.055114746,17.703125,-8.5,5.40625
1664629187162,0.0014648438,-1.750061,0.010925293,19.0,-0.703125,-21.46875
1664629187191,0.100097656,-0.98394775,-0.27056885,6.875,-8.109375,-51.203125
1664629187235,1.0544434,-1.2261353,-0.3032837,19.25,-2.21875,2.671875
1664629187297,0.34375,-0.83380127,-0.9517212,7.125,-21.890625,-8.96875
1664629187310,0.45654297,-0.6680298,-0.68585205,25.078125,-16.375,-3.375
1664629187371,0.33569336,-0.9578247,-0.50494385,11.390625,-18.703125,1.4375
1664629187386,0.1928711,-0.81207275,-0.39678955,14.015625,-18.453125,-15.078125
1664629187447,0.045654297,-0.51690674,-0.2852173,16.0,-18.078125,-5.015625
1664629187477,0.12133789,-0.5496216,-0.2703247,12.984375,-5.40625,-3.0625
1664629187508,0.21923828,-0.61138916,-0.34210205,8.28125,-14.515625,-1.796875
1664629187551,0.27026367,-0.7156372,-0.34747314,8.25,-18.671875,0.015625
1664629187603,0.18579102,-0.9885864,-0.3484497,5.953125,-13.046875,0.203125
1664629187626,0.2253418,-1.2217407,-0.43634033,-1.484375,-7.46875,-8.328125
1664629187672,0.36791992,-1.1453247,-0.43389893,-4.890625,-13.03125,-8.28125
1664629187718,0.2529297,-1.0698853,-0.57818604,-11.015625,-19.34375,-10.78125
1664629187747,0.43310547,-0.9949341,-0.46881104,-10.140625,-26.40625,-2.984375
1664629187790,0.65478516,-0.90093994,-0.2571411,-7.359375,-23.25,-5.9375
1664629187820,0.024658203,-0.8088989,-0.30548096,-17.28125,-20.328125,-7.375
1664629187882,0.19702148,-0.72320557,-0.32452393,-0.96875,6.25,-5.796875
1664629187914,0.53149414,-0.8982544,-0.16558838,-14.03125,-3.3125,-2.546875
1664629187942,0.09057617,-0.89849854,-0.22662354,-11.140625,-12.546875,-4.8125
1664629188003,0.28710938,-0.678772,-0.2588501,0.484375,-8.203125,2.203125
1664629188029,0.2783203,-0.567688,-0.20343018,-2.625,-18.015625,6.71875
1664629188061,0.07373047,-0.65338135,-0.21905518,-6.734375,-15.296875,4.640625
1664629188106,0.2927246,-0.7522583,-0.1885376,8.03125,-6.0625,9.0625
1664629188137,0.25585938,-0.8362427,-0.13970947,2.71875,-6.28125,9.609375
1664629188180,0.2446289,-1.1011353,-0.16949463,7.609375,-5.28125,7.59375
1664629188228,0.4086914,-1.3025513,-0.2769165,9.875,-5.125,-0.234375
1664629188258,0.33789062,-1.3931274,-0.16217041,23.703125,-1.34375,-16.28125
1664629188300,0.63549805,-1.3399048,-0.53912354,8.578125,-2.90625,-2.40625
1664629188378,0.46191406,-1.078186,-0.44903564,8.234375,-23.09375,-2.890625
1664629188384,-0.12231445,-0.60821533,-0.26690674,-6.03125,-7.421875,-17.28125
1664629188450,0.37353516,-0.5774536,-0.39215088,-6.953125,6.09375,-8.15625
1664629188465,0.33789062,-0.9048462,-0.2769165,-0.75,4.640625,-10.265625
1664629188497,0.09106445,-0.8557739,-0.25372314,-1.140625,-4.0,-10.65625
1664629188555,0.23095703,-0.5967407,-0.24835205,1.390625,-3.734375,-12.4375
1664629188570,0.22705078,-0.71173096,-0.237854,3.484375,3.125,-9.3125
1664629188630,0.0703125,-0.8928833,-0.17828369,12.1875,-2.734375,-11.875
1664629188666,0.009033203,-0.7749634,-0.29522705,7.6875,6.78125,-8.421875
1664629188694,0.20898438,-0.6621704,-0.37017822,13.390625,6.265625,1.125
1664629188735,0.27856445,-0.67193604,-0.25299072,18.71875,-8.296875,5.90625
1664629188782,0.0146484375,-1.0662231,-0.3110962,9.421875,-13.40625,7.03125
1664629188812,0.12573242,-1.4612427,-0.28546143,-2.5625,-3.203125,-1.5625
1664629188855,0.18261719,-1.5596313,-0.5220337,-16.828125,-6.1875,4.828125
1664629188885,0.1394043,-1.1792603,-0.5654907,-9.375,2.390625,9.546875
1664629188931,0.6755371,-1.0181274,-0.40045166,-8.71875,3.03125,4.390625
1664629188994,0.720459,-0.8887329,-0.23858643,-5.734375,-26.59375,-2.328125
1664629189008,-0.30395508,-0.7683716,-0.31866455,3.84375,-21.46875,-6.265625
1664629189066,0.3701172,-0.6514282,-0.24127197,2.296875,3.640625,-9.09375
1664629189098,0.38476562,-0.90460205,-0.20318604,1.484375,-8.65625,-1.75
1664629189126,0.05859375,-0.75494385,-0.20513916,10.40625,-1.421875,5.828125
1664629189188,0.18383789,-0.5117798,-0.25567627,8.125,-6.921875,9.84375
1664629189218,0.29638672,-0.5996704,-0.1765747,5.46875,-14.203125,14.09375
1664629189246,0.064697266,-0.770813,-0.24151611,-1.65625,-15.09375,10.703125
1664629189293,0.123291016,-1.0108032,-0.300354,1.375,-6.171875,14.46875
1664629189325,0.50219727,-1.2764282,-0.1687622,5.1875,4.015625,10.546875
1664629189366,0.28857422,-1.2954712,-0.24395752,-3.765625,10.890625,1.59375
1664629189446,0.31054688,-0.9558716,-0.30010986,-4.4375,18.453125,-11.3125
1664629189452,0.68481445,-1.255188,-0.64801025,16.40625,15.5625,-9.59375
1664629189487,0.16918945,-1.0010376,-0.54571533,-4.96875,-4.796875,-2.8125
1664629189546,-0.04248047,-0.55010986,-0.46905518,-1.0625,16.34375,-9.671875
1664629189560,0.35229492,-0.9014282,-0.39215088,-5.984375,14.78125,-10.921875
1664629189637,0.20483398,-0.911438,-0.40679932,-7.046875,3.6875,0.859375
1664629189641,0.10864258,-0.4841919,-0.25323486,2.734375,2.71875,3.828125
1664629189712,0.15454102,-0.49908447,-0.23297119,-0.640625,7.5625,-0.21875
1664629189726,0.100097656,-0.56451416,-0.21148682,6.890625,8.921875,1.875
1664629189757,0.10473633,-0.6921997,-0.30059814,4.6875,6.84375,6.453125
1664629189802,0.2692871,-0.9343872,-0.32086182,1.484375,9.09375,8.640625
1664629189850,0.09765625,-1.3753052,-0.41461182,-10.359375,1.875,3.3125
1664629189877,0.16210938,-1.4187622,-0.4126587,-5.03125,10.109375,5.0625
1664629189922,0.37109375,-1.274231,-0.362854,-18.53125,-3.625,6.171875
1664629189955,-0.045654297,-0.93585205,-0.5510864,-6.4375,8.359375,-9.390625
1664629189998,0.8015137,-0.87506104,-0.3789673,-6.15625,-2.0625,-1.9375
1664629190043,0.75561523,-0.8340454,-0.30889893,-12.109375,-35.078125,7.9375
1664629190072,-0.020263672,-0.9673462,-0.27398682,3.671875,-25.71875,6.90625
1664629190116,0.07080078,-0.7752075,-0.16607666,13.84375,-7.015625,-0.65625
1664629190176,0.3930664,-0.6511841,-0.20025635,-4.015625,-5.328125,4.078125
1664629190191,0.22802734,-0.5630493,-0.19171143,7.65625,-18.703125,9.546875
1664629190265,0.16821289,-0.49224854,-0.22735596,9.484375,-12.703125,13.5625
1664629190280,0.28027344,-0.7139282,-0.1560669,1.6875,-17.5625,13.890625
1664629190311,0.1772461,-1.0137329,-0.20562744,-0.5,-9.796875,9.375
1664629190389,0.28833008,-1.2676392,-0.20220947,-5.390625,0.828125,7.703125
1664629190393,0.49731445,-1.284729,-0.21710205,-0.5625,3.625,-4.40625
1664629190466,0.36328125,-1.1919556,-0.22320557,-2.375,14.859375,-18.96875
1664629190476,0.7338867,-1.2019653,-0.64141846,3.5625,12.390625,-13.59375
1664629190506,0.30737305,-0.91290283,-0.3237915,-6.71875,-8.375,-5.171875
1664629190583,-0.07421875,-0.4968872,-0.45733643,-11.75,21.4375,-19.109375
1664629190598,0.41845703,-0.85894775,-0.34405518,-7.703125,23.078125,-16.890625
1664629190626,0.28027344,-1.0383911,-0.29815674,-3.75,3.890625,-4.25
1664629190701,0.1862793,-0.5523071,-0.23272705,0.125,-1.40625,1.046875
1664629190705,0.05053711,-0.50250244,-0.20245361,2.3125,3.28125,-4.046875
1664629190778,0.10913086,-0.62677,-0.25958252,5.4375,15.3125,-1.5
1664629190794,0.2211914,-0.8689575,-0.2805786,2.328125,5.40625,2.515625
1664629190819,0.14526367,-1.1189575,-0.23590088,4.125,3.0625,5.109375
1664629190898,0.12939453,-1.1777954,-0.32818604,-2.5,1.78125,5.109375
1664629190913,0.26757812,-1.1538696,-0.32183838,-3.640625,9.140625,4.828125
1664629190942,0.3544922,-1.1856079,-0.5484009,-18.8125,-16.59375,-4.515625
1664629191017,0.55029297,-1.0647583,-0.29107666,5.40625,3.4375,0.65625
1664629191031,0.5913086,-0.85894775,-0.08087158,-11.1875,-14.71875,1.71875
1664629191062,0.046142578,-0.9368286,-0.27667236,-6.84375,-7.140625,-2.515625
1664629191106,0.3413086,-0.786438,-0.1831665,5.734375,-0.46875,2.078125
1664629191152,0.29907227,-0.8015747,-0.11456299,-1.5,-3.328125,5.640625
1664629191184,0.1730957,-0.72076416,-0.19146729,5.609375,-6.0625,9.546875
1664629191243,0.1821289,-0.5293579,-0.14605713,11.515625,3.625,12.90625
1664629191256,0.2692871,-0.58258057,-0.15753174,8.453125,-3.8125,14.03125
1664629191315,0.25561523,-0.8308716,-0.17022705,10.625,-6.765625,15.859375
1664629191346,0.35498047,-1.156311,-0.21343994,16.75,-3.140625,20.953125
1664629191376,0.41186523,-1.3118286,-0.24493408,9.234375,1.25,14.078125
1664629191436,0.48388672,-1.3154907,-0.25079346,5.28125,0.953125,-4.65625
1664629191451,0.31762695,-1.1113892,-0.34039307,-0.0625,8.109375,-25.828125
1664629191511,0.81640625,-1.1277466,-0.72003174,13.609375,5.515625,-1.90625
1664629191542,0.24560547,-0.7842407,-0.38116455,-3.53125,-13.875,-2.484375
1664629191571,0.13476562,-0.5930786,-0.45098877,2.46875,0.6875,-15.09375
1664629191615,0.2775879,-0.81500244,-0.270813,0.359375,7.96875,-6.09375
1664629191664,0.21679688,-0.7070923,-0.28302002,-0.359375,-1.109375,-3.34375
1664629191692,0.13208008,-0.47052002,-0.26226807,0.25,4.140625,-4.34375
1664629191735,0.13354492,-0.5601196,-0.24786377,5.109375,9.875,-3.046875
1664629191796,0.15771484,-0.62164307,-0.27008057,4.375,12.375,1.328125
1664629191811,0.23217773,-0.8386841,-0.25006104,0.171875,9.0,1.484375
1664629191873,0.16918945,-1.2258911,-0.38238525,-7.078125,8.625,-1.75
1664629191886,0.2265625,-1.4939575,-0.4307251,2.421875,17.546875,-6.0
1664629191948,0.35351562,-1.3713989,-0.30963135,-9.671875,3.484375,-1.390625
1664629191980,0.060791016,-1.0366821,-0.45733643,-15.734375,-9.015625,-7.796875
1664629192008,0.45092773,-0.90045166,-0.4680786,-3.59375,4.296875,-6.46875
1664629192067,0.9057617,-0.7305298,-0.31451416,-3.734375,-8.375,0.90625
1664629192099,0.23535156,-0.93585205,-0.34942627,-9.71875,-30.609375,0.15625
1664629192126,0.19140625,-0.95928955,-0.29888916,13.96875,-18.1875,-3.515625
1664629192201,0.54296875,-0.74005127,-0.15240479,9.1875,-17.453125,3.171875
1664629192206,0.18359375,-0.66412354,-0.20343018,6.296875,-26.15625,3.75
1664629192277,0.079589844,-0.503479,-0.17559814,7.6875,-22.453125,4.25
1664629192291,0.19140625,-0.5737915,-0.19854736,5.21875,-25.15625,7.5625
1664629192321,0.22631836,-0.78009033,-0.20245361,1.9375,-14.5625,7.234375
1664629192367,0.22583008,-1.1206665,-0.13067627,-19.21875,-10.109375,9.1875
1664629192428,0.5515137,-1.4465942,-0.06451416,-11.578125,-8.015625,0.953125
1664629192443,0.096191406,-1.2417603,-0.09454346,10.890625,-3.796875,-14.765625
1664629192501,0.29077148,-1.0276489,-0.43414307,-1.09375,10.28125,-32.625
1664629192532,0.78027344,-1.2153931,-0.6177368,15.9375,8.515625,-11.234375
1664629192564,0.078125,-0.7991333,-0.43780518,1.6875,-7.46875,-2.265625
1664629192610,0.2746582,-0.62506104,-0.4072876,-5.796875,7.109375,-8.046875
1664629192637,0.2668457,-0.97857666,-0.26104736,0.296875,3.71875,-5.34375
1664629192681,0.20263672,-0.85406494,-0.2029419,6.46875,-3.09375,0.046875
1664629192728,0.103515625,-0.45196533,-0.19927979,7.765625,2.265625,0.59375
1664629192756,0.08251953,-0.44805908,-0.2432251,5.828125,9.421875,-3.265625
1664629192801,0.118896484,-0.5261841,-0.25543213,10.046875,3.359375,1.734375
1664629192846,0.11987305,-0.71417236,-0.22930908,10.890625,2.265625,3.1875
1664629192877,0.099365234,-1.1626587,-0.32843018,4.09375,-7.25,8.765625
1664629192922,0.25610352,-1.5418091,-0.4602661,-6.875,12.1875,2.4375
1664629192951,0.35839844,-1.4988403,-0.3274536,1.984375,10.75,5.4375
1664629192996,0.34448242,-1.1995239,-0.59259033,-11.671875,-17.53125,-1.65625
1664629193057,0.3828125,-0.94781494,-0.5964966,16.921875,-6.765625,-10.8125
1664629193073,0.90405273,-0.84503174,-0.24859619,-2.28125,-13.734375,-2.625
1664629193131,0.38354492,-1.0408325,-0.2312622,-10.859375,-32.421875,-2.171875
1664629193160,-0.05493164,-0.86138916,-0.30474854,6.328125,-20.703125,-10.515625
1664629193190,0.32299805,-0.6682739,-0.2354126,-0.765625,-10.28125,-5.125
1664629193236,0.46923828,-0.67022705,-0.16607666,3.171875,-20.765625,3.1875
1664629193265,-0.0126953125,-0.5623169,-0.20684814,0.8125,-30.921875,0.359375
1664629193316,0.059326172,-0.4668579,-0.08282471,7.703125,-12.234375,6.578125
1664629193357,0.12792969,-0.55255127,-0.09210205,4.765625,-8.671875,12.1875
1664629193386,0.08496094,-0.6436157,-0.15411377,-3.890625,-4.65625,14.59375
1664629193432,0.38427734,-0.79351807,-0.06768799,2.390625,4.859375,18.21875
1664629193506,0.23364258,-1.6243286,-0.09918213,-10.28125,19.765625,18.875
1664629193513,0.5065918,-1.7769165,-0.2888794,11.359375,13.578125,-15.6875
1664629193581,0.5349121,-1.2598267,-0.21685791,16.78125,-6.859375,-23.03125
1664629193603,0.6147461,-1.0007935,-0.6140747,18.34375,-30.140625,-28.546875
1664629193626,0.38549805,-0.9612427,-0.23321533,-10.484375,-16.015625,-19.71875
1664629193690,0.1730957,-0.6409302,-0.37164307,-1.96875,-25.921875,-36.484375
1664629193714,0.2175293,-0.8345337,-0.37384033,-7.75,-5.265625,-26.4375
1664629193762,0.20654297,-1.1521606,-0.28936768,-8.109375,-13.5,-21.359375
1664629193792,0.1743164,-0.69317627,-0.13092041,-5.75,-24.53125,-21.96875
1664629193822,0.16992188,-0.41851807,-0.23345947,-2.21875,-24.578125,-14.203125
1664629193867,0.26171875,-0.631897,-0.16461182,3.640625,-33.515625,-9.25
1664629193913,0.048339844,-0.63287354,-0.1296997,6.265625,-42.8125,-9.53125
1664629193943,-0.014892578,-0.6091919,-0.09942627,6.609375,-42.609375,-6.015625
1664629193986,-0.051513672,-0.73687744,-0.124816895,10.0,-39.1875,-3.4375
1664629194016,-0.0390625,-0.9727173,-0.11260986,6.9375,-43.125,-3.6875
1664629194062,0.05834961,-0.9714966,-0.20025635,1.765625,-38.859375,-2.140625
1664629194122,-0.053466797,-1.1953735,0.014831543,-1.015625,-16.421875,-18.265625
1664629194138,-0.5888672,-1.4209595,-0.26519775,-6.828125,14.15625,-28.0625
1664629194197,1.3278809,-1.3010864,-0.5574341,-13.59375,20.109375,-4.296875
1664629194227,1.1254883,-0.83795166,-0.21539307,13.9375,-70.75,-3.296875
1664629194257,-0.04272461,-1.1311646,-0.055236816,-15.15625,-88.671875,13.5625
1664629194315,0.5175781,-1.22052,-0.113586426,7.34375,-59.421875,4.765625
1664629194346,0.31103516,-0.8303833,-0.097473145,18.390625,-58.453125,-7.6875
1664629194376,0.048583984,-0.7554321,-0.06451416,11.453125,-58.90625,-7.671875
1664629194423,0.20874023,-0.73321533,0.04876709,12.40625,-52.796875,-6.171875
1664629194451,0.014404297,-0.6067505,-0.002746582,8.140625,-47.265625,-6.28125
1664629194496,0.09838867,-0.66900635,0.152771,6.640625,-30.5,-4.328125
1664629194543,0.03466797,-0.61846924,0.1005249,11.109375,-26.765625,-13.578125
1664629194573,0.0690918,-0.82696533,0.15667725,-1.859375,-33.71875,-19.078125
1664629194618,0.13500977,-1.1052856,0.06439209,10.703125,-21.296875,-15.296875
1664629194677,0.005859375,-1.2546997,0.15545654,11.203125,-26.5625,-25.0625
1664629194691,0.080078125,-1.6658325,-0.13531494,14.859375,-8.78125,-26.6875
1664629194767,0.97875977,-1.171936,-0.42852783,36.359375,-29.546875,-13.53125
1664629194772,0.7297363,-0.85284424,-0.5730591,18.734375,-68.65625,3.125
1664629194843,0.23095703,-1.0852661,-0.30230713,-0.796875,-68.328125,27.3125
1664629194858,-0.17138672,-1.203186,0.043151855,12.515625,-66.484375,-30.953125
1664629194889,0.20288086,-0.9517212,-0.31158447,31.90625,-58.890625,-28.625
1664629194946,0.31640625,-0.71295166,-0.27252197,18.75,-62.515625,-10.9375
1664629194981,0.036621094,-0.8245239,-0.144104,19.734375,-63.328125,-12.828125
1664629195007,-0.19067383,-0.8362427,-0.1194458,13.75,-40.90625,-10.328125
1664629195050,0.016113281,-0.7510376,-0.22930908,10.4375,-25.609375,-12.765625
1664629195097,0.17504883,-0.7637329,-0.117248535,13.453125,-28.140625,-0.375
1664629195127,0.12109375,-0.92315674,-0.09893799,25.4375,-28.625,8.6875
1664629195171,0.036865234,-1.1343384,-0.11431885,27.390625,-30.375,9.859375
1664629195208,-0.032470703,-1.4087524,-0.15118408,13.78125,-28.640625,-2.28125
1664629195247,0.28833008,-1.6189575,-0.26324463,0.265625,-38.3125,-5.515625
1664629195307,0.328125,-1.506897,-0.40802002,12.046875,-34.171875,10.875
1664629195320,0.38500977,-1.017395,-0.6091919,-19.4375,-26.15625,12.625
1664629195382,1.4118652,-0.8911743,-0.29888916,12.953125,-15.421875,-6.40625
1664629195411,0.5852051,-0.7620239,-0.32208252,6.609375,-56.4375,12.546875
1664629195441,2.4414062E-4,-0.62457275,-0.40045166,13.203125,-39.03125,-0.9375
1664629195485,0.6894531,-0.7732544,-0.14361572,5.40625,-27.25,-6.71875
1664629195515,0.32763672,-0.7383423,-0.17437744,15.078125,-39.5,-1.953125
1664629195563,0.0,-0.36920166,-0.16143799,18.625,-33.3125,0.625
1664629195607,0.21191406,-0.44659424,-0.16680908,7.109375,-17.28125,10.265625
1664629195635,0.31933594,-0.8977661,-0.08721924,6.28125,4.671875,8.71875
1664629195681,0.49023438,-1.1255493,-0.1975708,10.796875,3.46875,-1.78125
1664629195726,0.4699707,-1.2324829,-0.237854,-6.453125,-4.203125,-2.09375
1664629195755,0.27246094,-1.0205688,-0.18658447,7.875,14.828125,-19.34375
1664629195802,0.2668457,-1.0127563,-0.38580322,-12.078125,22.53125,-27.546875
1664629195865,0.86376953,-1.2786255,-0.6038208,4.78125,21.34375,-4.984375
1664629195877,0.30810547,-0.8584595,-0.3887329,-7.15625,0.578125,-8.109375
1664629195938,0.22363281,-0.6609497,-0.3513794,-6.609375,17.453125,-16.703125
1664629195954,0.42529297,-0.9656372,-0.25933838,-1.578125,14.234375,-12.40625
1664629196027,0.1772461,-0.6218872,-0.26202393,1.734375,-1.828125,-1.453125
1664629196040,0.10180664,-0.32281494,-0.26080322,3.28125,1.75,-6.890625
1664629196073,0.17333984,-0.52301025,-0.22930908,3.828125,2.09375,-7.296875
1664629196134,0.123535156,-0.7390747,-0.19732666,-0.890625,-2.015625,-3.84375
1664629196161,0.099121094,-1.0127563,-0.21954346,-1.4375,-0.046875,-6.21875
1664629196191,0.2133789,-1.2593384,-0.2901001,2.59375,1.6875,-4.84375
1664629196237,0.35791016,-1.4285278,-0.3977661,-6.671875,-3.71875,-2.203125
1664629196268,0.39819336,-1.2319946,-0.60772705,-1.390625,-22.65625,1.0625
1664629196310,0.36523438,-0.96221924,-0.41558838,-2.40625,-10.796875,-3.671875
1664629196359,0.8510742,-0.80010986,-0.26568604,10.71875,-21.09375,11.0
1664629196388,0.122802734,-0.91363525,-0.17926025,-1.34375,-30.125,7.390625
1664629196435,-0.0034179688,-0.8098755,-0.2835083,4.46875,-11.1875,-2.65625
1664629196491,0.47705078,-0.767395,-0.08404541,0.0,-8.828125,3.796875
1664629196506,0.22607422,-0.7803345,-0.1572876,2.046875,-15.546875,4.484375
1664629196565,0.07055664,-0.60650635,-0.1885376,5.828125,-10.84375,3.0
1664629196585,0.3635254,-0.57037354,-0.12750244,9.5,-8.75,8.15625
1664629196640,0.13110352,-0.7913208,-0.13531494,6.9375,-9.421875,6.3125
1664629196673,0.27929688,-0.9849243,-0.18780518,11.828125,-10.234375,3.828125
1664629196703,0.39038086,-1.1536255,-0.09161377,16.640625,-6.328125,8.515625
1664629196746,0.012207031,-1.1516724,-0.30523682,4.234375,-4.75,3.625
1664629196793,0.52124023,-1.0681763,-0.48272705,22.1875,16.046875,-6.921875
1664629196821,0.9433594,-1.2532349,-0.42315674,0.046875,12.390625,-2.359375
1664629196868,0.24511719,-1.1062622,-0.45025635,12.5625,4.453125,1.15625
1664629196942,-0.07348633,-0.505188,-0.6079712,1.6875,19.046875,-10.546875
1664629196947,0.47314453,-0.7366333,-0.46832275,-9.78125,16.4375,-14.578125
1664629197003,0.2211914,-1.0003052,-0.34259033,-4.59375,3.953125,-8.875
1664629197015,0.025878906,-0.7842407,-0.29449463,-0.9375,5.328125,-9.984375
1664629197075,0.15942383,-0.5742798,-0.2744751,-3.78125,2.765625,-7.984375
1664629197106,0.10522461,-0.6375122,-0.33502197,2.8125,6.234375,-2.4375
1664629197136,0.14550781,-0.67755127,-0.33380127,10.34375,5.03125,5.40625
1664629197195,0.1430664,-0.7678833,-0.32818604,4.765625,-2.46875,4.4375
1664629197226,0.119140625,-1.0899048,-0.38336182,-7.46875,-3.75,1.625
1664629197257,0.18481445,-1.3347778,-0.4356079,-8.515625,6.859375,3.875
1664629197332,0.41137695,-1.2019653,-0.3760376,-17.5625,-4.859375,3.546875
1664629197337,0.115478516,-0.9841919,-0.6433716,-12.65625,-19.28125,-5.390625
1664629197409,0.56396484,-0.8862915,-0.36798096,8.953125,9.9375,5.71875
1664629197424,0.84472656,-0.94976807,-0.2744751,-9.671875,-25.859375,1.109375
1664629197472,-0.19799805,-0.89630127,-0.30548096,-1.15625,-10.28125,6.71875
1664629197495,0.10595703,-0.70318604,-0.25811768,1.875,6.65625,-0.453125
1664629197557,0.49365234,-0.7295532,-0.18121338,-11.453125,3.171875,3.640625
1664629197573,0.14794922,-0.64727783,-0.23590088,-3.234375,-10.453125,8.25
1664629197649,0.12597656,-0.5366821,-0.17486572,-2.859375,-4.875,10.796875
1664629197665,0.22875977,-0.661438,-0.24151611,-4.40625,-6.46875,10.5625
1664629197692,0.2109375,-0.8850708,-0.30963135,-11.125,-8.453125,8.375
1664629197753,0.19604492,-1.2297974,-0.14434814,-10.21875,10.984375,10.8125
1664629197768,0.47460938,-1.4998169,-0.21929932,1.65625,14.390625,2.53125
1664629197828,0.40893555,-1.2495728,-0.19781494,7.609375,15.796875,-19.328125
1664629197857,0.68310547,-1.1714478,-0.678772,4.75,5.46875,-19.84375
1664629197886,0.5292969,-1.1204224,-0.40289307,-11.78125,-5.78125,5.3125
1664629197933,-0.16381836,-0.6865845,-0.34210205,0.828125,1.15625,-15.421875
1664629197977,0.3005371,-0.7593384,-0.2835083,-1.546875,21.671875,-17.9375
1664629198007,0.31518555,-0.9944458,-0.3447876,-3.5625,10.125,-10.390625
1664629198051,0.1105957,-0.65216064,-0.21051025,1.0625,-1.84375,-7.28125
1664629198084,0.026367188,-0.41192627,-0.2703247,9.484375,1.78125,-2.75
1664629198127,0.15429688,-0.3875122,-0.26715088,9.984375,4.71875,-1.546875
1664629198188,0.15576172,-0.600647,-0.17877197,12.421875,-0.71875,-1.34375
1664629198203,0.059814453,-0.9402466,-0.18902588,-3.546875,-15.453125,5.140625
1664629198261,0.06591797,-1.3093872,-0.36505127,5.09375,2.984375,2.546875
1664629198295,0.26782227,-1.5032349,-0.28179932,0.546875,-0.78125,-2.09375
1664629198325,0.4946289,-1.2734985,-0.5159302,-7.015625,-19.546875,14.4375
1664629198367,0.15234375,-0.9038696,-0.47149658,-6.265625,-7.3125,-2.25
1664629198443,0.9560547,-0.9668579,-0.1560669,3.25,-15.1875,3.390625
1664629198450,0.24658203,-0.9446411,-0.18145752,-8.890625,-39.171875,0.96875
1664629198486,-0.2434082,-0.62628174,-0.36065674,5.125,-14.703125,-11.1875
1664629198519,0.40698242,-0.7908325,-0.16241455,7.984375,7.171875,-3.609375
1664629198593,0.43920898,-0.8845825,-0.17999268,-8.359375,-12.71875,4.9375
1664629198607,0.1381836,-0.68585205,-0.13311768,6.140625,-18.3125,8.8125
1664629198637,0.13500977,-0.60943604,-0.17315674,3.484375,-10.734375,10.46875
1664629198717,0.15820312,-0.82769775,-0.21954346,8.8125,-2.03125,6.796875
1664629198727,0.3581543,-1.0569458,-0.21002197,14.796875,2.84375,9.0625
1664629198755,0.44506836,-1.274231,-0.13946533,8.140625,-2.484375,8.859375
1664629198816,0.26660156,-1.1748657,-0.23468018,13.609375,1.28125,-2.734375
1664629198833,0.22875977,-1.0620728,-0.38067627,7.453125,6.203125,-17.75
1664629198890,0.69091797,-1.0899048,-0.5256958,13.875,8.71875,-9.09375
1664629198928,0.14086914,-0.8657837,-0.46295166,0.25,-0.15625,2.5625
1664629198950,-0.013183594,-0.5630493,-0.4570923,-4.515625,13.078125,-13.078125
1664629198997,0.4411621,-0.92755127,-0.35211182,-1.8125,7.4375,-10.390625
1664629199042,0.12963867,-0.894104,-0.21539307,8.609375,-6.109375,2.453125
1664629199072,0.013183594,-0.49761963,-0.2769165,8.046875,1.515625,1.234375
1664629199116,0.1484375,-0.47711182,-0.29937744,12.421875,10.109375,0.78125
1664629199163,0.19702148,-0.69195557,-0.31793213,15.0625,6.015625,5.875
1664629199191,0.1665039,-0.9055786,-0.31524658,2.875,-2.1875,7.46875
1664629199237,0.18334961,-1.2041626,-0.3706665,-5.109375,0.265625,4.46875
1664629199269,0.21557617,-1.4265747,-0.3821411,-5.4375,6.09375,10.78125
1664629199311,0.40673828,-1.0994263,-0.44049072,-18.765625,-6.453125,6.28125
1664629199370,0.3173828,-0.90704346,-0.70025635,-3.703125,-11.109375,-5.46875
1664629199385,0.673584,-0.91070557,-0.28546143,7.484375,5.609375,6.109375
1664629199447,0.8671875,-0.9507446,-0.31915283,-18.59375,-27.0,-5.421875
1664629199477,-0.21801758,-0.8550415,-0.27667236,0.046875,-18.578125,0.9375
1664629199505,0.21459961,-0.54107666,-0.222229,13.53125,5.109375,-7.734375
1664629199554,0.42358398,-0.67633057,-0.19976807,-4.5625,-6.6875,3.046875
1664629199581,0.20678711,-0.62628174,-0.23297119,4.4375,-10.8125,5.984375
1664629199628,0.28076172,-0.48980713,-0.20318604,2.078125,-18.0,13.28125
1664629199675,0.1862793,-0.7334595,-0.22198486,0.09375,-14.984375,15.3125
1664629199706,0.38061523,-1.1287231,-0.21051025,11.140625,1.078125,9.578125
1664629199745,0.42797852,-1.3093872,-0.2444458,6.296875,-0.5,10.6875
1664629199790,0.35302734,-1.2061157,-0.3045044,-2.09375,3.921875,-4.796875
1664629199834,0.38354492,-0.9558716,-0.33502197,0.421875,10.140625,-13.03125
1664629199896,0.5900879,-1.1443481,-0.72369385,12.71875,16.015625,-17.8125
1664629199901,0.14428711,-0.98516846,-0.52130127,-2.34375,4.796875,-2.453125
1664629199972,0.16967773,-0.65582275,-0.54693604,-4.5625,19.9375,-20.828125
1664629199985,0.48876953,-0.88360596,-0.3977661,-3.984375,11.875,-9.953125
1664629200018,0.22045898,-0.75738525,-0.35723877,-4.34375,-4.859375,0.828125
1664629200076,0.04296875,-0.4414673,-0.16851807,0.578125,1.671875,-0.21875
1664629200105,0.0390625,-0.45587158,-0.24639893,1.703125,8.8125,-0.84375
1664629200135,0.10205078,-0.60479736,-0.24053955,5.09375,11.671875,5.796875
1664629200183,0.22290039,-0.8286743,-0.24713135,-2.1875,8.90625,8.203125
1664629200257,0.22802734,-1.1663208,-0.3430786,-19.046875,-5.8125,5.65625
1664629200262,0.17651367,-1.4692993,-0.40948486,-4.5,8.59375,-2.984375
1664629200305,0.38183594,-1.3723755,-0.33087158,-15.328125,-3.84375,-3.859375
1664629200332,0.08105469,-0.9932251,-0.5195923,-6.703125,-13.359375,-10.140625
1664629200377,0.6069336,-0.86187744,-0.6026001,7.53125,7.0,-1.5
1664629200438,1.0314941,-0.8098755,-0.23223877,-7.546875,-21.703125,6.15625
1664629200454,0.050048828,-0.9055786,-0.2991333,-6.453125,-26.640625,6.125
1664629200510,0.07373047,-0.7024536,-0.27886963,14.328125,-6.953125,-4.0625
1664629200548,0.5109863,-0.66534424,-0.14898682,3.96875,-14.515625,8.8125
1664629200570,0.25610352,-0.678772,-0.16656494,5.171875,-23.75,4.78125
1664629200633,0.1262207,-0.5515747,-0.1716919,7.109375,-18.546875,2.265625
1664629200653,0.23950195,-0.59210205,-0.15948486,9.4375,-8.046875,4.8125
1664629200707,0.24438477,-0.802063,-0.21417236,4.875,-15.859375,4.96875
1664629200736,0.4104004,-1.0967407,-0.21392822,3.09375,-8.6875,2.65625
1664629200769,0.4868164,-1.2766724,-0.18902588,6.703125,-18.703125,0.8125
1664629200812,0.35180664,-1.1672974,-0.23077393,6.25,-22.078125,-4.578125
1664629200856,0.4177246,-1.1885376,-0.18634033,0.609375,-8.484375,-17.828125
1664629200889,0.6513672,-1.3897095,-0.4290161,18.1875,-12.953125,-9.59375
1664629200932,0.15771484,-0.8093872,-0.40777588,6.65625,-13.015625,-14.421875
1664629200991,0.1899414,-0.581604,-0.41949463,-2.3125,7.03125,-17.03125
1664629201006,0.40576172,-1.0996704,-0.3189087,-7.125,6.4375,-22.640625
1664629201082,0.1772461,-0.9758911,-0.34283447,1.15625,-12.265625,-11.265625
1664629201086,0.06616211,-0.569397,-0.20513916,5.796875,-2.78125,-14.53125
1664629201156,0.18579102,-0.59259033,-0.23956299,0.140625,-0.78125,-16.5
1664629201172,0.19189453,-0.661438,-0.2793579,-1.71875,-4.75,-13.515625
1664629201202,0.23120117,-0.6055298,-0.19366455,13.765625,-11.375,-5.109375
1664629201278,0.12011719,-0.5598755,-0.1843872,9.640625,-22.21875,-1.0625
1664629201298,-0.021972656,-0.8098755,-0.26031494,14.171875,-17.09375,0.171875
1664629201321,-0.07104492,-1.4944458,-0.24713135,8.34375,-14.8125,-2.484375
1664629201399,0.1574707,-1.5510864,-0.15338135,6.65625,-4.640625,2.3125
1664629201403,0.14892578,-1.0713501,-0.39093018,-31.515625,-35.671875,1.125
1664629201470,0.31201172,-1.1924438,-0.2341919,4.0625,49.8125,-22.390625
1664629201488,1.1181641,-1.072815,-0.43292236,-1.421875,3.109375,-19.03125
1664629201516,0.6699219,-0.94415283,-0.20318604,-19.984375,-25.640625,-2.953125
1664629201592,0.22436523,-0.91607666,-0.16534424,-15.1875,-40.875,-18.796875
1664629201606,0.4230957,-0.90460205,-0.29400635,-2.796875,-45.453125,-28.890625
1664629201638,0.25463867,-0.7258911,-0.20050049,10.34375,-51.921875,-10.5
1664629201696,0.05908203,-0.4800415,-0.109436035,10.359375,-52.015625,-8.96875
1664629201727,0.030517578,-0.5576782,-0.10406494,-0.453125,-39.875,-1.46875
1664629201755,0.13696289,-0.6956177,-0.054748535,-3.015625,-41.9375,0.09375
1664629201801,0.045654297,-0.7468872,0.06756592,5.359375,-36.875,-8.4375
1664629201831,0.09863281,-0.79522705,0.051696777,5.765625,-37.25,-20.109375
1664629201877,0.25927734,-0.86920166,0.07635498,-4.375,-42.03125,-19.640625
1664629201924,-4.8828125E-4,-0.8508911,0.11273193,-1.75,-41.765625,-25.96875
1664629201957,0.10205078,-0.8670044,-0.17999268,-5.828125,-22.703125,-27.296875
1664629201998,0.6713867,-1.9746704,-0.72052,-6.296875,-32.34375,-12.515625
1664629202045,0.49829102,-1.5144653,0.18621826,-4.171875,-52.90625,36.03125
1664629202071,-0.32983398,-0.105285645,-0.10333252,11.78125,-40.0625,-31.671875
1664629202115,0.34326172,-1.4800415,-0.14874268,-16.328125,-10.515625,-27.890625
1664629202145,0.43896484,-1.4204712,-0.09967041,19.421875,-65.234375,-3.5625
1664629202193,0.15356445,-0.2942505,-0.18536377,28.171875,-86.265625,-18.296875
1664629202253,-0.107666016,-0.6421509,-0.13531494,12.5625,-62.71875,-9.71875
1664629202268,-0.056640625,-1.0593872,-0.085998535,18.828125,-56.953125,0.40625
1664629202327,0.18579102,-0.83306885,-0.07940674,27.671875,-53.515625,-1.140625
1664629202356,-0.23095703,-0.88604736,0.07147217,24.390625,-59.953125,1.328125
1664629202385,-0.1730957,-1.02594,0.1552124,3.15625,-45.875,-0.453125
1664629202461,-0.010986328,-1.0151978,-0.19293213,-0.65625,-14.9375,-5.296875
1664629202477,0.007080078,-1.138977,-0.105041504,-10.296875,-18.90625,-9.703125
1664629202506,0.546875,-1.0969849,-0.26397705,-14.171875,-31.53125,5.53125
1664629202551,1.3256836,-0.8242798,0.05999756,7.3125,-50.03125,18.1875
1664629202584,0.018066406,-1.326477,-0.07672119,-13.0625,-80.640625,-1.703125
1664629202628,-0.22265625,-1.3694458,-0.25372314,23.203125,-57.234375,7.34375
1664629202670,0.6813965,-0.6021118,-0.0076293945,21.078125,-15.234375,2.890625
1664629202705,0.11376953,-0.819397,0.012878418,11.671875,-46.296875,11.140625
1664629202761,-0.21044922,-0.9368286,-0.003479004,11.796875,-27.765625,2.96875
1664629202791,0.35083008,-0.7329712,0.026794434,15.59375,-15.4375,4.765625
1664629202822,0.21875,-0.8201294,-0.020080566,9.828125,-17.234375,9.15625
1664629202881,0.26391602,-0.8545532,-0.042053223,6.125,-14.046875,11.078125
1664629202896,0.28735352,-0.91729736,0.014099121,16.578125,-17.328125,14.84375
1664629202957,0.2043457,-1.0952759,0.14447021,14.0625,-7.75,8.65625
1664629202986,0.19873047,-1.3499146,0.012634277,2.34375,-3.046875,-7.109375
1664629203017,0.66748047,-1.4834595,-0.20465088,32.8125,1.015625,-17.0625
1664629203063,0.79052734,-1.4216919,-0.40655518,24.984375,-29.765625,-12.453125
1664629203105,0.17919922,-0.94073486,-0.17559814,28.078125,-24.765625,-16.65625
1664629203136,0.5253906,-0.52056885,-0.7559204,17.609375,-0.5,-10.5625
1664629203185,0.5576172,-0.99591064,-0.44781494,5.875,-21.484375,-1.953125
1664629203214,0.14746094,-1.1807251,-0.2559204,20.5,-31.875,-7.484375
1664629203256,0.0029296875,-0.48492432,-0.23883057,25.15625,-11.296875,-2.84375
1664629203316,0.20825195,-0.44439697,-0.22540283,18.046875,3.453125,-7.421875
1664629203330,0.15234375,-0.6760864,-0.23297119,17.078125,-6.359375,-3.640625
1664629203392,0.23022461,-0.75250244,-0.2625122,8.03125,-11.484375,-3.171875
1664629203422,0.2553711,-1.046936,-0.27423096,3.90625,-13.25,-5.140625
1664629203457,0.33666992,-1.2649536,-0.380188,2.125,-12.625,-6.671875
1664629203513,0.51708984,-1.2156372,-0.35577393,-8.765625,-14.1875,-1.078125
1664629203587,0.119140625,-0.9336548,-0.57940674,-15.296875,-33.046875,-13.46875
1664629203592,0.66845703,-0.7715454,-0.34918213,2.171875,-8.21875,-7.046875
1664629203615,0.7644043,-0.91973877,-0.35723877,-7.171875,-36.59375,-10.171875
1664629203646,0.057617188,-0.8115845,-0.35113525,-0.25,-23.234375,-7.484375
1664629203724,0.35107422,-0.70806885,-0.20953369,8.515625,-14.171875,-7.46875
1664629203738,0.27783203,-0.6980591,-0.237854,-6.03125,-22.046875,-6.625
1664629203775,0.14648438,-0.6577759,-0.2276001,5.578125,-27.0625,2.890625
1664629203810,0.17504883,-0.569397,-0.17218018,9.46875,-13.1875,6.96875
1664629203871,0.32617188,-0.7839966,-0.18878174,2.046875,-18.015625,10.6875
1664629203889,0.28271484,-1.0747681,-0.12774658,0.65625,-17.703125,6.09375
1664629203946,0.6960449,-1.411438,-0.121154785,14.078125,-13.09375,7.609375
1664629203961,0.18481445,-1.1472778,-0.17999268,15.953125,-13.953125,3.078125
1664629204022,0.13549805,-0.85528564,-0.28131104,10.390625,11.78125,-18.71875
1664629204050,0.6765137,-0.96466064,-0.5628052,7.328125,22.453125,-16.6875
1664629204087,0.4165039,-1.0369263,-0.61260986,-2.359375,-2.546875,11.234375
1664629204128,0.107910156,-0.6643677,-0.3826294,-4.0625,3.109375,-8.3125
1664629204181,0.20629883,-0.7798462,-0.31378174,-3.375,11.71875,-13.265625
1664629204201,0.15039062,-0.8875122,-0.32818604,-0.140625,6.78125,-4.15625
1664629204246,0.11206055,-0.63067627,-0.24273682,1.984375,9.21875,-3.953125
1664629204293,0.06225586,-0.66851807,-0.28692627,-4.921875,14.1875,-7.59375
1664629204322,0.20996094,-0.7493286,-0.32696533,-4.453125,16.546875,2.609375
1664629204368,0.18823242,-0.9043579,-0.28033447,-4.921875,11.265625,3.953125
1664629204397,0.19360352,-1.0188599,-0.3196411,-6.921875,3.359375,-1.125
1664629204442,0.23266602,-1.1494751,-0.35601807,-6.078125,4.953125,-2.96875
1664629204502,0.375,-1.0811157,-0.27349854,-14.953125,-13.203125,4.375
1664629204516,0.21728516,-1.0776978,-0.585022,-11.78125,-27.984375,-5.1875
1664629204576,0.6455078,-1.1226196,-0.33795166,-4.21875,-30.8125,-0.6875
1664629204607,0.6010742,-0.81451416,-0.057678223,-4.59375,-38.546875,3.71875
1664629204635,-0.27075195,-0.77960205,-0.1104126,-7.421875,-24.796875,-6.984375
1664629204683,0.10522461,-0.70684814,-0.22418213,13.796875,2.25,-6.734375
1664629204711,0.5251465,-0.7908325,-0.049621582,-4.03125,-4.6875,7.0625
1664629204757,0.23486328,-0.8772583,-0.11895752,-4.59375,-23.734375,5.46875
1664629204803,0.118896484,-0.7420044,-0.11431885,12.015625,-8.609375,4.0
1664629204834,0.26586914,-0.74005127,-0.097473145,12.109375,-4.140625,10.5
1664629204878,0.22753906,-0.9187622,-0.13189697,3.09375,-4.203125,8.453125
1664629204926,0.25927734,-1.0569458,-0.10870361,11.234375,4.5,8.015625
1664629204951,0.40307617,-1.1672974,-0.112854004,9.265625,1.296875,3.78125
1664629205026,0.28027344,-1.1167603,-0.17218018,11.328125,9.625,-8.46875
1664629205040,0.3930664,-1.1570435,-0.36505127,5.453125,16.09375,-9.734375
1664629205075,0.76342773,-1.190979,-0.5820923,22.171875,3.171875,2.28125
1664629205132,0.07324219,-0.7720337,-0.49884033,0.15625,-2.25,-2.0625
1664629205147,0.14941406,-0.7319946,-0.47027588,11.4375,14.171875,-6.296875
1664629205207,0.31347656,-1.0791626,-0.27398682,4.515625,8.59375,-7.046875
1664629205237,0.17456055,-0.8345337,-0.27374268,8.5,-0.265625,4.390625
1664629205265,0.02319336,-0.5159302,-0.24859619,3.859375,8.640625,-2.609375
1664629205311,0.14013672,-0.6765747,-0.31817627,-6.875,10.296875,-5.96875
1664629205356,0.23803711,-0.81036377,-0.3196411,-1.21875,12.796875,0.5625
1664629205386,0.16333008,-0.88287354,-0.28204346,3.265625,2.890625,4.015625
1664629205431,0.09033203,-0.9402466,-0.31304932,-9.9375,5.046875,0.375
1664629205463,0.1027832,-1.1309204,-0.3320923,-2.125,13.734375,1.0625
1664629205507,0.35302734,-1.0872192,-0.4151001,-9.046875,4.71875,2.515625
1664629205566,0.36767578,-1.0501099,-0.6206665,-11.515625,-10.671875,-4.484375
1664629205580,0.75561523,-0.989563,-0.30523682,0.40625,3.46875,3.1875
1664629205640,0.49291992,-0.82696533,-0.22393799,-15.453125,-32.109375,-5.96875
1664629205672,-0.03564453,-0.8953247,-0.29156494,-10.796875,-27.703125,-10.03125
1664629205702,0.25097656,-0.8377075,-0.20684814,1.3125,-6.265625,-8.25
1664629205760,0.4013672,-0.835022,-0.09820557,-6.765625,-8.34375,-1.234375
1664629205792,0.1875,-0.7136841,-0.22564697,1.6875,-16.328125,3.1875
1664629205822,0.12158203,-0.59332275,-0.17779541,2.0625,-8.609375,9.109375
1664629205867,0.21459961,-0.76934814,-0.15802002,-0.78125,-12.96875,10.828125
1664629205896,0.24389648,-0.9846802,-0.14801025,3.265625,-5.40625,9.609375
1664629205944,0.3125,-1.0930786,-0.06915283,9.703125,12.71875,7.75
1664629205986,0.10522461,-1.0457153,-0.28277588,2.78125,2.734375,3.734375
1664629206015,0.31860352,-0.97857666,-0.077941895,13.0,17.53125,-11.65625
1664629206064,0.41601562,-1.1643677,-0.46270752,12.984375,6.09375,-10.828125
1664629206124,0.5136719,-1.1377563,-0.4451294,7.328125,-0.59375,6.859375
1664629206138,0.09667969,-0.7227173,-0.50128174,1.84375,6.109375,1.21875
1664629206199,0.26123047,-0.8513794,-0.37530518,-0.171875,17.046875,-11.359375
1664629206213,0.25634766,-1.0547485,-0.3242798,0.078125,6.96875,-2.25
1664629206288,0.17358398,-0.71954346,-0.27960205,-1.40625,2.921875,1.140625
1664629206310,0.060546875,-0.58380127,-0.24053955,0.953125,6.3125,-3.609375
1664629206337,0.05859375,-0.70440674,-0.27301025,2.328125,15.46875,-2.484375
1664629206391,0.22290039,-0.77130127,-0.28668213,0.890625,14.375,-0.078125
1664629206423,0.17163086,-0.74957275,-0.34869385,-8.78125,1.234375,5.734375
1664629206451,0.115722656,-0.8128052,-0.29034424,-4.578125,14.078125,2.765625
1664629206496,0.12988281,-1.1660767,-0.21759033,-1.59375,11.328125,3.1875
1664629206525,0.12670898,-1.2793579,-0.2810669,-9.703125,6.484375,-0.484375
1664629206575,0.19970703,-1.237854,-0.6494751,-6.0,6.265625,1.359375
1664629206617,0.41674805,-1.0957642,-0.5081177,-1.109375,12.390625,8.71875
1664629206645,0.7524414,-0.8587036,-0.2354126,-5.078125,-12.1875,-3.09375
1664629206692,0.08251953,-0.83428955,-0.31573486,-7.765625,-15.046875,1.640625
1664629206750,0.053466797,-0.93829346,-0.22125244,-4.5,2.640625,-4.171875
1664629206767,0.37646484,-0.9048462,-0.09942627,-15.765625,-4.03125,1.71875
1664629206826,0.21606445,-0.819397,-0.23297119,-3.46875,-10.3125,1.359375
1664629206908,0.13696289,-0.6741333,-0.15557861,10.59375,-5.421875,8.015625
1664629206914,0.2734375,-0.6338501,-0.14752197,7.640625,-10.03125,14.609375
1664629206933,0.15673828,-0.87042236,-0.24005127,2.703125,-18.921875,13.375
1664629206961,0.33911133,-1.0701294,-0.21734619,11.0625,-4.96875,8.4375
1664629207007,0.33911133,-1.2163696,-0.13555908,1.5,-8.5,8.484375
1664629207051,0.4260254,-1.0928345,-0.23272705,6.921875,-7.84375,-4.65625
1664629207082,0.20214844,-0.9373169,-0.23345947,9.203125,4.875,-22.984375
1664629207129,0.2836914,-1.1091919,-0.5388794,13.359375,10.390625,-20.90625
1664629207173,0.45581055,-0.8731079,-0.41119385,1.890625,-9.015625,6.015625
1664629207202,0.03857422,-0.63116455,-0.47027588,-12.015625,3.828125,-3.59375
1664629207250,0.19335938,-0.95025635,-0.27423096,-0.421875,4.1875,-7.625
1664629207277,0.17138672,-0.92193604,-0.2822876,2.8125,-0.125,-0.515625
1664629207322,0.06689453,-0.6045532,-0.18804932,8.078125,7.0,-0.125
1664629207380,0.16113281,-0.6165161,-0.27886963,2.6875,8.578125,-4.171875
1664629207397,0.049316406,-0.7659302,-0.28155518,2.828125,13.75,-0.125
1664629207459,0.19677734,-0.95269775,-0.30645752,-2.125,11.265625,2.765625
1664629207488,0.19799805,-1.0369263,-0.29864502,-7.515625,1.5625,2.0
1664629207518,0.037109375,-1.1167603,-0.347229,-1.25,9.984375,0.609375
1664629207594,0.1430664,-1.2407837,-0.21099854,-3.34375,13.75,-0.34375
1664629207609,0.43066406,-0.9717407,-0.6375122,-3.78125,-1.84375,4.21875
1664629207636,0.44995117,-0.8464966,-0.43096924,4.78125,15.765625,-1.15625
1664629207681,0.61450195,-0.83673096,-0.22149658,-3.390625,-6.671875,5.34375
1664629207712,0.07080078,-1.0117798,-0.2144165,-8.28125,1.625,3.34375
1664629207755,0.19042969,-0.8452759,-0.27911377,1.484375,7.671875,-0.890625
1664629207804,0.4008789,-0.7908325,-0.19390869,-4.609375,1.78125,4.171875
1664629207831,0.24169922,-0.8076782,-0.21026611,-1.828125,-11.0,5.125
1664629207877,0.14575195,-0.71710205,-0.15142822,4.96875,-5.46875,4.640625
1664629207937,0.2553711,-0.7090454,-0.2119751,-14.5625,-11.625,7.34375
1664629207962,0.16845703,-0.864563,-0.11968994,-3.734375,-3.28125,-0.59375
1664629208011,0.28173828,-1.0264282,-0.20635986,-2.1875,-8.375,7.96875
1664629208025,0.33154297,-1.1033325,-0.11602783,-0.078125,-5.109375,1.828125
1664629208089,0.19506836,-1.1763306,-0.17095947,2.15625,4.84375,-9.265625
1664629208118,0.36547852,-1.0720825,-0.23516846,4.1875,7.609375,-17.53125
1664629208146,0.48120117,-1.1223755,-0.5479126,8.90625,-4.703125,-11.84375
1664629208190,0.36914062,-0.84625244,-0.39996338,4.9375,-13.71875,1.28125
1664629208243,-0.029785156,-0.64923096,-0.32891846,3.546875,4.890625,-4.328125
1664629208266,0.12207031,-0.94488525,-0.2805786,-0.40625,6.78125,-10.140625
1664629208310,0.19165039,-1.0142212,-0.35723877,-0.34375,5.59375,0.9375
1664629208357,0.1081543,-0.76934814,-0.30133057,0.6875,6.796875,-0.4375
1664629208386,0.12695312,-0.72076416,-0.24908447,3.59375,5.671875,-1.53125
1664629208432,0.01928711,-0.81329346,-0.22418213,-0.28125,11.40625,2.546875
1664629208465,0.13574219,-0.7761841,-0.24859619,5.0625,10.859375,0.640625
1664629208522,0.23144531,-0.78497314,-0.28546143,-0.765625,3.828125,5.78125
1664629208551,0.14916992,-0.90338135,-0.2546997,-1.40625,-4.515625,10.59375
1664629208586,0.099365234,-1.0930786,-0.25128174,-5.890625,-1.484375,6.53125
1664629208643,0.087646484,-1.2210083,-0.30474854,-5.5,3.828125,2.015625
1664629208671,0.3232422,-1.1550903,-0.3184204,-5.21875,0.515625,6.59375
1664629208702,0.13671875,-1.0669556,-0.4036255,-17.0625,-7.59375,2.796875
1664629208745,0.59375,-0.9793091,-0.36138916,-0.1875,-5.9375,0.875
1664629208780,0.54467773,-0.80059814,-0.175354,-1.3125,-16.203125,3.515625
1664629208853,0.063964844,-0.8442993,-0.28131104,-6.546875,-10.859375,7.671875
1664629208866,0.32714844,-0.8867798,-0.1951294,3.390625,7.453125,2.21875
1664629208897,0.42041016,-0.8870239,-0.12286377,-6.078125,-6.171875,3.1875
1664629208946,0.13549805,-0.8584595,-0.17340088,-7.75,-10.484375,-1.25
1664629209000,0.26831055,-0.7036743,-0.17706299,-0.734375,-5.75,1.21875
1664629209015,0.3137207,-0.7925415,-0.1326294,-2.53125,-9.484375,2.921875
