# Sensor type: Respeck
# Activity type: Sitting
# Activity code: 0
# Subject id: s1918275
# Notes: 
timestamp,accel_x,accel_y,accel_z,gyro_x,gyro_y,gyro_z
1664889350485,-0.0026855469,-0.9883423,-0.07183838,-3.140625,0.421875,-0.78125
1664889350502,9.765625E-4,-0.98516846,-0.070373535,-1.09375,-1.234375,0.75
1664889350558,-0.015380859,-0.9915161,-0.0725708,-1.84375,-0.171875,-1.015625
1664889350580,-0.0026855469,-0.99835205,-0.066223145,1.625,1.453125,2.28125
1664889350614,0.017333984,-0.9927368,-0.07891846,-1.09375,0.71875,0.03125
1664889350659,-0.015625,-1.0176392,-0.08306885,-2.171875,0.984375,-0.140625
1664889350697,-0.0024414062,-0.99468994,-0.057922363,-3.75,0.609375,-0.4375
1664889350739,-0.018310547,-1.0090942,-0.05206299,-2.5625,1.65625,-0.40625
1664889350773,-0.0026855469,-1.0039673,-0.044006348,-4.984375,0.046875,-1.546875
1664889350818,0.015380859,-0.9758911,-0.07110596,-3.71875,-2.46875,-1.875
1664889350860,-0.05102539,-1.024231,0.003112793,-4.09375,-2.078125,-2.359375
1664889350896,-0.038330078,-0.9729614,-0.038879395,-1.0,-1.75,1.828125
1664889350942,-0.020996094,-0.9668579,-0.011291504,-0.375,1.78125,2.765625
1664889350976,0.01977539,-1.0171509,-0.035461426,1.765625,1.515625,3.921875
1664889351008,-0.0056152344,-0.99468994,-0.03302002,-1.265625,-0.96875,2.796875
1664889351080,0.021484375,-0.9866333,-0.006652832,3.703125,-1.15625,2.609375
1664889351092,-0.0075683594,-1.005188,-0.028625488,4.15625,-3.078125,2.890625
1664889351147,0.0073242188,-1.0147095,-0.065979004,6.421875,-1.875,2.0
1664889351168,-0.037597656,-0.9846802,-0.020080566,4.921875,1.421875,4.125
1664889351227,0.0073242188,-1.0015259,-0.05645752,2.328125,2.28125,4.8125
1664889351248,0.049804688,-0.99884033,-0.06085205,2.515625,2.65625,4.90625
1664889351302,0.071777344,-0.9890747,-0.101867676,-0.3125,0.015625,1.84375
1664889351328,0.07861328,-0.96221924,-0.101379395,-1.546875,0.578125,-0.75
1664889351369,0.0021972656,-1.0161743,-0.03692627,2.984375,2.640625,0.09375
1664889351403,0.013183594,-0.99176025,-0.062316895,4.859375,1.234375,0.921875
1664889351450,0.041259766,-0.9812622,-0.08062744,2.03125,-0.21875,0.53125
1664889351483,0.03857422,-1.0049438,-0.066467285,5.203125,5.703125,2.953125
1664889351528,0.03173828,-1.0078735,-0.030090332,2.84375,0.734375,0.671875
1664889351563,0.051757812,-0.98931885,-0.09698486,-0.78125,1.78125,0.640625
1664889351608,0.0056152344,-0.9846802,-0.05328369,-2.1875,-0.671875,0.046875
1664889351651,-0.0012207031,-0.99542236,-0.051574707,0.515625,-0.375,0.90625
1664889351687,0.057373047,-0.95513916,-0.07598877,-2.25,-3.28125,-1.421875
1664889351730,0.032226562,-1.0059204,-0.039611816,-0.59375,-4.484375,-3.25
1664889351763,0.011230469,-1.0205688,-0.03692627,0.921875,-3.84375,-1.28125
1664889351856,0.010986328,-1.0130005,-0.066711426,-0.390625,-1.3125,0.140625
1664889351862,0.04248047,-0.9849243,-0.11480713,5.15625,1.96875,2.171875
1664889351910,0.09716797,-1.0244751,-0.06695557,26.109375,-1.28125,4.125
1664889351920,0.014404297,-0.96539307,-0.112854004,9.03125,2.890625,4.1875
1664889351967,0.02709961,-0.9636841,-0.09625244,3.359375,-0.890625,2.6875
1664889352000,0.072509766,-0.96832275,-0.117248535,0.578125,-0.03125,1.859375
1664889352046,0.042236328,-1.0117798,-0.13018799,1.484375,1.65625,1.109375
1664889352085,0.06982422,-0.9746704,-0.10284424,3.359375,0.125,-0.46875
1664889352123,0.05029297,-0.9985962,-0.14727783,-2.25,-0.03125,0.234375
1664889352165,0.04272461,-0.9990845,-0.10235596,-3.3125,2.71875,-0.765625
1664889352201,0.039794922,-0.9968872,-0.10333252,1.90625,1.09375,1.40625
1664889352236,0.044677734,-0.9570923,-0.12652588,-1.5,-0.203125,1.53125
1664889352284,0.05029297,-0.98809814,-0.097961426,0.59375,-0.421875,1.234375
1664889352314,0.05493164,-0.98516846,-0.116760254,1.0,-0.21875,1.28125
1664889352366,0.059326172,-0.9793091,-0.11260986,0.640625,-0.484375,-0.1875
1664889352393,0.06347656,-0.98150635,-0.11968994,0.40625,-0.703125,-0.6875
1664889352439,0.048339844,-0.97735596,-0.10284424,-0.015625,-0.609375,-0.234375
1664889352476,0.053222656,-0.9920044,-0.10235596,-0.09375,-1.046875,-0.578125
1664889352541,0.056396484,-0.98809814,-0.10626221,0.078125,-0.21875,0.046875
1664889352550,0.05078125,-0.9885864,-0.11114502,-0.40625,-0.140625,0.1875
1664889352609,0.057861328,-0.9993286,-0.128479,-0.828125,0.0625,-0.03125
1664889352633,0.04296875,-0.98150635,-0.057678223,2.515625,-0.671875,-0.09375
1664889352686,0.05810547,-0.9927368,-0.1296997,-2.8125,-2.6875,0.890625
1664889352707,0.060302734,-0.9998169,-0.105773926,-2.046875,-0.6875,-0.78125
1664889352754,0.038085938,-0.9890747,-0.09820557,2.078125,-0.421875,0.78125
1664889352787,0.04711914,-0.97320557,-0.105529785,0.296875,0.25,-0.53125
1664889352833,0.05078125,-1.0037231,-0.097229004,0.640625,0.046875,0.0625
1664889352867,0.05517578,-0.9951782,-0.09991455,0.296875,-0.84375,0.234375
1664889352913,0.057373047,-0.9890747,-0.10748291,0.28125,-0.625,-0.015625
1664889352944,0.05859375,-0.9883423,-0.09552002,1.25,0.234375,0.734375
1664889352992,0.061035156,-0.9793091,-0.0881958,0.65625,-0.53125,0.484375
1664889353025,0.059814453,-0.9902954,-0.105529785,-0.140625,-0.734375,0.59375
1664889353069,0.059570312,-0.9812622,-0.08892822,1.109375,-0.296875,0.125
1664889353110,0.057617188,-0.98394775,-0.109436035,0.5,-0.609375,0.03125
1664889353149,0.05908203,-0.99102783,-0.117492676,-1.8125,0.28125,0.140625
1664889353190,0.04736328,-0.9944458,-0.066711426,3.109375,-0.015625,-0.328125
1664889353228,0.06225586,-0.97735596,-0.11920166,-2.25,-1.390625,0.25
1664889353282,0.0625,-0.987854,-0.081604004,-1.171875,0.578125,-0.984375
1664889353306,0.0390625,-1.0020142,-0.08428955,2.625,0.28125,1.3125
1664889353339,0.078125,-0.97125244,-0.09210205,0.546875,-0.25,0.234375
1664889353407,0.03930664,-1.0039673,-0.10089111,-0.875,-1.5,1.328125
1664889353417,0.059570312,-0.9859009,-0.08843994,1.75,-1.046875,1.953125
1664889353472,0.052246094,-0.986145,-0.10089111,0.125,-0.34375,0.375
1664889353497,0.05834961,-0.98321533,-0.08453369,1.15625,0.6875,0.953125
1664889353543,0.06542969,-0.9854126,-0.08843994,0.859375,-0.625,0.578125
1664889353582,0.055908203,-0.99005127,-0.09136963,0.359375,-0.40625,0.0625
1664889353620,0.06323242,-0.9890747,-0.077941895,1.53125,-0.109375,0.59375
1664889353656,0.06347656,-0.9920044,-0.101379395,1.21875,0.125,0.671875
1664889353696,0.080566406,-0.987854,-0.11968994,-0.359375,0.53125,1.109375
1664889353732,0.056396484,-0.9883423,-0.07623291,4.296875,-0.09375,0.421875
1664889353780,0.08227539,-0.98321533,-0.128479,-2.21875,-0.796875,0.09375
1664889353840,0.08227539,-0.97442627,-0.08917236,-0.46875,0.3125,-0.8125
1664889353854,0.051513672,-1.0015259,-0.101379395,3.09375,-0.390625,0.8125
1664889353891,0.07128906,-0.96661377,-0.109680176,2.09375,0.296875,0.015625
1664889353933,0.061523438,-0.9937134,-0.097473145,1.59375,0.703125,-0.640625
1664889353968,0.06567383,-0.9968872,-0.09869385,1.453125,-0.390625,0.359375
1664889354025,0.071777344,-0.9817505,-0.105285645,0.421875,-0.3125,-0.296875
1664889354050,0.06298828,-0.9985962,-0.10455322,1.265625,0.234375,0.171875
1664889354106,0.07397461,-0.97320557,-0.10089111,0.765625,-0.140625,0.03125
1664889354127,0.064941406,-0.99468994,-0.09552002,0.65625,0.484375,-0.515625
1664889354171,0.06713867,-0.9920044,-0.093566895,1.0,0.28125,0.5
1664889354207,0.06225586,-0.99102783,-0.108947754,0.859375,0.390625,-0.171875
1664889354249,0.06567383,-0.99835205,-0.12310791,-0.3125,1.4375,0.28125
1664889354294,0.057128906,-0.98443604,-0.06915283,3.765625,0.34375,-0.375
1664889354328,0.06640625,-0.99053955,-0.13336182,-2.109375,-0.640625,0.53125
1664889354373,0.07788086,-0.9697876,-0.089416504,-1.328125,-0.171875,-1.21875
1664889354408,0.05053711,-1.0071411,-0.09161377,2.0625,0.078125,0.875
1664889354451,0.0625,-0.9800415,-0.0960083,0.65625,0.34375,0.328125
1664889354487,0.053710938,-0.98394775,-0.1038208,1.171875,-0.21875,0.0625
1664889354530,0.07446289,-0.99005127,-0.101623535,0.84375,-0.78125,0.625
1664889354570,0.06982422,-0.9834595,-0.109191895,0.53125,-0.4375,-0.0625
1664889354609,0.064941406,-0.9866333,-0.10772705,1.296875,0.59375,0.03125
1664889354643,0.06762695,-0.9829712,-0.10601807,0.453125,-0.71875,0.265625
1664889354688,0.06982422,-0.98931885,-0.09503174,0.484375,0.078125,-0.4375
1664889354744,0.06762695,-0.9915161,-0.10626221,-0.140625,0.140625,0.296875
1664889354766,0.072265625,-0.9751587,-0.097717285,0.3125,-0.546875,0.125
1664889354824,0.064208984,-0.98687744,-0.08331299,-0.9375,-0.484375,-0.09375
1664889354847,0.07519531,-0.95196533,-0.08477783,-3.21875,-1.046875,-1.0
1664889354881,0.053222656,-1.0142212,-0.10479736,1.890625,-0.40625,1.3125
1664889354927,0.07885742,-0.9673462,-0.093566895,-4.1875,-0.34375,-1.546875
1664889354967,0.04663086,-1.013977,-0.07330322,1.296875,0.75,0.046875
1664889355001,0.06518555,-0.98028564,-0.09844971,-0.171875,-0.5,0.046875
1664889355037,0.064208984,-0.97735596,-0.09088135,-1.546875,0.15625,-0.640625
1664889355111,0.056884766,-1.0010376,-0.08892822,-1.421875,-0.5625,0.0
1664889355120,0.0769043,-0.9885864,-0.09210205,-1.046875,-1.984375,0.171875
1664889355160,0.064453125,-0.98321533,-0.08282471,0.578125,0.234375,-0.421875
1664889355194,0.060302734,-0.99005127,-0.08502197,0.6875,-0.359375,0.265625
1664889355242,0.0715332,-0.99053955,-0.08453369,0.8125,-0.40625,0.140625
1664889355281,0.061523438,-0.98638916,-0.077941895,0.359375,0.125,-0.3125
1664889355318,0.05883789,-0.9990845,-0.07891846,0.046875,-0.53125,0.109375
1664889355363,0.068115234,-0.98638916,-0.08306885,-0.5625,-0.46875,0.1875
1664889355399,0.055419922,-1.0003052,-0.09429932,-1.015625,0.8125,-0.28125
1664889355430,0.055908203,-0.9859009,-0.04522705,2.671875,0.109375,-0.8125
1664889355498,0.07104492,-0.9915161,-0.11090088,-1.375,-1.40625,0.609375
1664889355508,0.05444336,-0.98516846,-0.07354736,-1.734375,0.59375,-1.734375
1664889355566,0.047607422,-1.0073853,-0.06695557,3.0,-0.296875,0.921875
1664889355588,0.079833984,-0.9649048,-0.078430176,0.171875,0.046875,-0.28125
1664889355644,0.04272461,-0.99835205,-0.074035645,0.34375,0.296875,-0.0625
1664889355666,0.06542969,-0.98760986,-0.070129395,1.140625,-0.265625,0.40625
1664889355713,0.056152344,-0.99468994,-0.08258057,0.859375,0.09375,0.1875
1664889355747,0.06665039,-0.98565674,-0.0791626,1.765625,-0.203125,0.578125
1664889355790,0.061035156,-0.98028564,-0.077941895,0.859375,-0.578125,-0.09375
1664889355833,0.059570312,-0.9932251,-0.07574463,0.484375,-0.390625,-0.0625
1664889355873,0.064208984,-0.9885864,-0.078186035,0.484375,-0.1875,-0.140625
1664889355903,0.0625,-0.9951782,-0.0791626,1.234375,-0.15625,0.203125
1664889355949,0.0637207,-0.97613525,-0.08062744,0.09375,-0.1875,0.15625
1664889355981,0.0690918,-0.99005127,-0.116760254,-2.375,0.171875,-0.390625
1664889356026,0.040283203,-1.0010376,-0.05206299,4.546875,0.609375,0.140625
1664889356059,0.075927734,-0.97320557,-0.10211182,-3.96875,-1.0625,-0.28125
1664889356106,0.053955078,-1.0044556,-0.06719971,0.546875,0.546875,-0.78125
1664889356139,0.052490234,-0.99298096,-0.07476807,1.859375,-0.234375,0.59375
1664889356186,0.07104492,-0.9873657,-0.07672119,-0.96875,0.0,-0.625
1664889356219,0.052490234,-1.0003052,-0.06964111,0.4375,0.0,-0.15625
1664889356275,0.06567383,-0.9841919,-0.05206299,0.234375,-0.78125,-0.140625
1664889356310,0.061523438,-1.000061,-0.08868408,0.25,-0.78125,-0.0625
1664889356379,0.061523438,-0.99102783,-0.08502197,0.84375,-0.203125,0.40625
1664889356385,0.06713867,-0.98565674,-0.06573486,0.890625,-0.046875,0.109375
1664889356435,0.05810547,-0.9915161,-0.07476807,0.1875,0.109375,0.140625
1664889356457,0.06323242,-0.991272,-0.07232666,0.140625,-0.625,-0.03125
1664889356499,0.061523438,-0.989563,-0.058898926,0.625,-0.484375,-1.0
1664889356534,0.055664062,-0.9859009,-0.06890869,0.640625,0.15625,-0.578125
1664889356578,0.064453125,-0.98687744,-0.10406494,-2.046875,0.21875,-0.140625
1664889356611,0.038085938,-1.0064087,-0.04522705,3.84375,0.078125,-0.21875
1664889356657,0.06738281,-0.9805298,-0.09210205,-2.328125,-0.546875,0.328125
1664889356692,0.064208984,-0.98565674,-0.054260254,-1.28125,0.453125,-0.875
1664889356737,0.036132812,-1.0056763,-0.058898926,2.34375,-0.375,0.859375
1664889356780,0.06982422,-0.9673462,-0.073791504,0.59375,-0.1875,-0.09375
1664889356823,0.048339844,-0.9902954,-0.062072754,0.8125,-0.125,-0.265625
1664889356848,0.057128906,-0.99835205,-0.066711426,0.890625,-0.171875,0.4375
1664889356892,0.05810547,-0.98565674,-0.082336426,0.203125,-0.15625,-0.015625
1664889356939,0.053466797,-0.9949341,-0.059143066,1.1875,0.625,0.421875
1664889356997,0.060058594,-0.98760986,-0.06719971,1.515625,-0.375,0.515625
1664889357018,0.05908203,-0.99176025,-0.06890869,0.6875,-0.09375,0.125
1664889357050,0.060302734,-0.9920044,-0.06719971,1.140625,0.0625,0.234375
1664889357131,0.052978516,-0.9927368,-0.07281494,0.984375,-0.109375,0.28125
1664889357135,0.05883789,-0.987854,-0.07086182,1.046875,-0.21875,0.078125
1664889357175,0.05419922,-0.9939575,-0.06866455,0.90625,0.0625,0.265625
1664889357212,0.0715332,-0.96832275,-0.05596924,-0.125,-0.21875,-0.84375
1664889357257,0.049072266,-1.0161743,-0.07525635,3.59375,-0.03125,1.1875
1664889357287,0.056152344,-0.9690552,-0.09674072,-4.140625,-0.734375,-1.25
1664889357332,0.056396484,-1.0090942,-0.05206299,1.78125,0.59375,0.21875
1664889357365,0.060058594,-0.98028564,-0.073791504,1.40625,-0.21875,0.359375
1664889357410,0.05517578,-0.98516846,-0.08428955,0.875,-0.359375,0.203125
1664889357444,0.05493164,-1.0003052,-0.077941895,2.53125,0.4375,0.40625
1664889357491,0.060546875,-0.97442627,-0.07305908,2.421875,0.28125,0.546875
1664889357523,0.060058594,-0.9902954,-0.085998535,1.09375,0.125,0.234375
1664889357571,0.060302734,-0.98394775,-0.078430176,2.59375,0.1875,0.296875
1664889357601,0.05859375,-0.9793091,-0.085754395,1.078125,0.203125,0.359375
1664889357658,0.060302734,-0.9915161,-0.07598877,1.15625,0.625,-0.328125
1664889357681,0.050048828,-0.99420166,-0.08331299,0.46875,0.015625,0.078125
1664889357737,0.07104492,-0.98443604,-0.07647705,1.203125,0.734375,0.28125
1664889357760,0.052246094,-0.9873657,-0.09185791,0.953125,0.515625,0.078125
1664889357816,0.07104492,-1.0022583,-0.11090088,-0.265625,1.9375,0.75
1664889357841,0.06274414,-0.9807739,-0.051574707,3.921875,0.03125,-0.578125
1664889357884,0.05126953,-0.99664307,-0.10333252,-0.265625,-0.25,0.65625
1664889357918,0.059814453,-0.9734497,-0.0791626,-1.015625,-0.140625,-1.390625
1664889357963,0.05078125,-1.0125122,-0.061340332,2.4375,0.640625,0.46875
1664889357996,0.0546875,-0.97369385,-0.0869751,0.53125,0.21875,0.25
1664889358039,0.055664062,-0.9873657,-0.078430176,2.828125,1.390625,0.953125
1664889358074,0.061035156,-0.9998169,-0.089660645,0.890625,0.15625,0.84375
1664889358119,0.051757812,-0.9768677,-0.10089111,-0.4375,-0.203125,-0.234375
1664889358152,0.075683594,-1.0015259,-0.07867432,1.578125,0.734375,0.4375
1664889358200,0.063964844,-0.9902954,-0.09967041,2.21875,0.109375,0.5625
1664889358236,0.05908203,-0.98028564,-0.09576416,2.28125,-0.328125,0.21875
1664889358279,0.052734375,-0.99591064,-0.08306885,1.15625,0.59375,0.03125
1664889358311,0.051757812,-0.98321533,-0.09991455,1.265625,0.59375,0.4375
1664889358359,0.07080078,-0.9866333,-0.090148926,1.640625,0.78125,1.15625
1664889358412,0.061767578,-0.989563,-0.097717285,1.0,0.609375,0.640625
1664889358436,0.071777344,-0.9692993,-0.117004395,-1.375,-0.21875,0.125
1664889358493,0.055664062,-1.0073853,-0.109436035,3.390625,1.234375,0.828125
1664889358513,0.07299805,-0.95880127,-0.10650635,-3.875,0.109375,-0.875
1664889358572,0.059326172,-1.0149536,-0.07208252,2.640625,0.734375,-0.265625
1664889358591,0.06347656,-0.9656372,-0.10357666,2.015625,0.953125,0.046875
1664889358628,0.068847656,-0.9885864,-0.09576416,0.5625,0.515625,-0.671875
1664889358670,0.056396484,-0.9981079,-0.08502197,2.890625,0.25,0.28125
1664889358704,0.06738281,-0.9824829,-0.0960083,1.734375,0.25,0.3125
1664889358750,0.055908203,-0.98443604,-0.10699463,1.046875,-0.125,-0.109375
1664889358782,0.0769043,-0.98101807,-0.109680176,1.59375,0.40625,0.3125
1664889358828,0.06201172,-0.98321533,-0.10235596,1.03125,-0.796875,-0.359375
1664889358863,0.06665039,-0.9866333,-0.10748291,0.5625,-0.03125,-0.21875
1664889358907,0.056640625,-0.98809814,-0.10699463,1.640625,0.515625,0.203125
1664889358963,0.06958008,-0.97320557,-0.101135254,1.203125,0.296875,0.109375
1664889358998,0.05053711,-0.98394775,-0.109436035,0.0625,0.578125,-0.109375
1664889359020,0.06616211,-0.99298096,-0.12774658,-1.71875,-0.46875,-0.078125
1664889359065,0.052490234,-0.9924927,-0.08282471,3.578125,0.796875,-0.09375
1664889359103,0.072753906,-0.9734497,-0.12701416,-4.625,-1.328125,-0.515625
1664889359143,0.05859375,-1.006897,-0.085754395,0.28125,-0.4375,-1.0
1664889359178,0.049560547,-0.97857666,-0.11187744,-0.5625,-0.71875,0.21875
1664889359246,0.07104492,-0.9795532,-0.09503174,-1.59375,-0.90625,-0.59375
1664889359262,0.039794922,-0.9932251,-0.09039307,0.25,-0.90625,0.0
1664889359311,0.059570312,-0.99053955,-0.09234619,-0.609375,-1.984375,1.015625
1664889359334,0.06665039,-0.9866333,-0.10211182,-0.4375,-1.203125,-0.296875
1664889359379,0.046142578,-0.99664307,-0.08917236,-0.171875,-0.109375,0.4375
1664889359413,0.072509766,-0.989563,-0.08721924,-0.421875,-0.828125,-0.109375
1664889359458,0.053710938,-0.98516846,-0.08428955,-1.03125,0.0625,-0.375
1664889359493,0.057861328,-0.9968872,-0.08135986,-0.78125,0.390625,-0.015625
1664889359539,0.061523438,-0.975647,-0.08526611,-0.046875,-0.296875,-0.28125
1664889359584,0.056640625,-0.9907837,-0.09063721,-1.046875,0.1875,-0.15625
1664889359617,0.06567383,-1.000061,-0.105285645,-0.640625,0.78125,0.09375
1664889359662,0.050048828,-0.9763794,-0.051086426,2.03125,0.078125,-0.53125
1664889359695,0.06665039,-0.99053955,-0.10675049,-0.359375,-0.21875,0.875
1664889359740,0.060791016,-0.98516846,-0.08331299,-3.203125,-0.453125,-1.171875
1664889359779,0.048095703,-1.0076294,-0.058898926,1.859375,0.3125,0.359375
1664889359818,0.051757812,-0.9783325,-0.082092285,0.40625,0.078125,0.265625
1664889359879,0.05517578,-0.97906494,-0.07745361,0.78125,-0.09375,-0.125
1664889359911,0.052001953,-1.0025024,-0.08282471,0.8125,0.265625,0.5
1664889359958,0.06298828,-0.9837036,-0.081848145,0.0625,0.125,-0.09375
1664889359974,0.056152344,-0.99346924,-0.07623291,0.921875,0.21875,0.3125
1664889360019,0.06298828,-0.9866333,-0.07891846,1.265625,0.15625,0.71875
1664889360060,0.06567383,-0.98321533,-0.081604004,0.78125,0.09375,-0.109375
1664889360090,0.051757812,-0.9932251,-0.082336426,0.46875,-0.03125,0.0
1664889360136,0.060058594,-0.98687744,-0.077697754,1.390625,0.125,0.28125
1664889360171,0.05419922,-0.9841919,-0.08673096,0.75,0.171875,0.390625
1664889360227,0.059814453,-0.9993286,-0.0869751,0.703125,1.3125,0.4375
1664889360246,0.064941406,-0.9734497,-0.055480957,1.578125,0.015625,-0.453125
1664889360291,0.057373047,-1.0012817,-0.10308838,1.125,-0.09375,1.15625
1664889360329,0.057128906,-0.9697876,-0.08746338,-2.390625,-0.796875,-1.1875
1664889360368,0.056884766,-1.0134888,-0.06085205,1.296875,0.5,0.46875
1664889360403,0.05883789,-0.9819946,-0.0803833,-0.15625,-0.484375,-0.140625
1664889360462,0.056152344,-0.99224854,-0.08135986,-0.734375,-0.890625,0.125
1664889360484,0.048095703,-1.0022583,-0.0713501,-0.015625,-1.46875,0.75
1664889360527,0.06958008,-0.97735596,-0.08135986,-0.328125,-1.890625,0.265625
1664889360591,0.061279297,-0.98638916,-0.077941895,0.140625,-0.875,-1.1875
1664889360605,0.06323242,-0.98565674,-0.081848145,1.78125,-0.046875,0.671875
1664889360666,0.05834961,-0.9885864,-0.07647705,0.3125,-0.09375,-1.203125
1664889360686,0.056884766,-1.0025024,-0.07476807,0.15625,0.671875,-0.65625
1664889360745,0.060058594,-0.9849243,-0.062316895,-1.75,1.0,-1.5
1664889360764,0.051513672,-0.99468994,-0.050354004,-2.328125,2.03125,-2.40625
1664889360797,0.040771484,-0.9902954,-0.06817627,-1.046875,0.953125,-1.90625
1664889360842,0.06665039,-0.9507446,-0.04840088,-2.046875,-1.421875,-1.671875
1664889360878,0.037353516,-1.017395,-0.0647583,1.875,-0.546875,-0.484375
1664889360924,0.045166016,-0.9834595,-0.08087158,-5.75,-1.953125,-2.828125
1664889360957,0.035888672,-1.003479,-0.04522705,0.765625,-0.484375,-0.421875
1664889361000,0.049072266,-0.9837036,-0.05206299,1.796875,-0.515625,-0.15625
1664889361034,0.025390625,-0.9932251,-0.06500244,-0.96875,-1.046875,-0.1875
1664889361078,0.049072266,-1.0005493,-0.054992676,-0.234375,-1.3125,0.25
1664889361111,0.03857422,-0.99298096,-0.05328369,-3.390625,-2.78125,-0.5625
1664889361171,0.0390625,-0.99542236,-0.033996582,-0.921875,1.015625,-0.5
1664889361191,0.026855469,-0.9973755,-0.043762207,0.5,-0.609375,0.375
1664889361235,0.046142578,-0.9751587,-0.031555176,-0.640625,-1.46875,-0.296875
1664889361292,0.044433594,-1.0049438,-0.03692627,-0.875,-0.5,-0.703125
1664889361315,0.03564453,-1.0020142,-0.043762207,0.265625,-1.0,-0.375
1664889361371,0.04711914,-0.9927368,-0.039611816,0.640625,-0.4375,0.265625
1664889361392,0.037353516,-0.9902954,-0.041809082,0.875,-0.578125,0.03125
1664889361450,0.057373047,-0.96881104,-0.040100098,-0.90625,-0.953125,-0.296875
1664889361471,0.015380859,-1.0210571,-0.03741455,4.328125,-0.375,1.15625
1664889361529,0.052734375,-0.97613525,-0.051818848,-3.34375,-1.53125,-0.9375
1664889361554,0.032226562,-1.008606,-0.024230957,1.71875,0.15625,0.0
1664889361585,0.036865234,-0.9885864,-0.04840088,1.59375,-0.25,0.328125
1664889361630,0.041503906,-0.9841919,-0.046691895,0.109375,0.109375,-0.46875
1664889361663,0.029052734,-1.0076294,-0.040100098,1.84375,0.5,0.203125
1664889361711,0.040039062,-0.9854126,-0.038146973,1.296875,-0.640625,0.40625
1664889361744,0.03930664,-0.99835205,-0.042785645,1.703125,-0.140625,0.25
1664889361792,0.03540039,-0.9939575,-0.05303955,1.921875,-0.796875,0.890625
1664889361825,0.049804688,-0.98565674,-0.035705566,2.71875,-2.03125,1.0
1664889361865,0.028076172,-1.0061646,-0.04058838,0.515625,-1.171875,0.953125
1664889361902,0.040771484,-0.99786377,-0.062561035,-0.3125,-1.5,0.671875
1664889361947,0.052246094,-0.99102783,-0.046936035,1.515625,-0.4375,0.921875
1664889361979,0.048828125,-0.99224854,-0.046447754,0.265625,0.046875,0.59375
1664889362034,0.056884766,-0.9768677,-0.058654785,-2.859375,0.0625,-0.421875
1664889362058,0.015380859,-1.0166626,-0.030334473,4.40625,-0.546875,1.4375
1664889362115,0.0625,-0.975647,-0.066467285,-4.21875,-1.078125,-0.453125
1664889362135,0.045654297,-0.99835205,-0.027404785,-0.109375,0.609375,-0.359375
1664889362191,0.036132812,-0.99713135,-0.03302002,2.171875,0.03125,0.90625
1664889362227,0.05053711,-0.9837036,-0.050354004,0.71875,0.484375,-0.046875
1664889362261,0.028320312,-1.0003052,-0.04425049,0.703125,0.625,0.25
1664889362315,0.052246094,-0.9932251,-0.038635254,1.0,0.265625,0.75
1664889362339,0.04736328,-0.98809814,-0.046447754,0.609375,0.484375,0.109375
1664889362384,0.046875,-0.99664307,-0.045959473,2.015625,1.34375,0.796875
1664889362418,0.057617188,-0.9951782,-0.05230713,1.71875,0.53125,0.625
1664889362468,0.046875,-0.99542236,-0.045715332,1.15625,0.9375,0.28125
1664889362496,0.04663086,-1.0012817,-0.043029785,0.890625,0.90625,0.5625
1664889362545,0.05029297,-0.9859009,-0.04449463,1.09375,0.671875,0.34375
1664889362576,0.057617188,-0.9873657,-0.043762207,0.6875,0.484375,-0.140625
1664889362632,0.05517578,-0.9924927,-0.06402588,-1.515625,1.03125,-0.109375
1664889362655,0.030273438,-1.003479,-0.030578613,4.421875,0.625,0.671875
1664889362697,0.06225586,-0.98101807,-0.06402588,-1.34375,-0.15625,0.046875
1664889362733,0.048339844,-0.99786377,-0.04498291,-0.125,0.5625,-0.15625
1664889362788,0.049804688,-0.9985962,-0.046203613,2.53125,0.625,0.671875
1664889362811,0.048828125,-0.9866333,-0.05596924,1.5,1.125,0.1875
1664889362867,0.048583984,-0.9976196,-0.053771973,1.0,0.453125,0.53125
1664889362890,0.059814453,-0.986145,-0.042297363,1.546875,-0.03125,0.25
1664889362948,0.048095703,-0.9985962,-0.05230713,0.796875,0.265625,-0.21875
1664889362974,0.056640625,-0.991272,-0.050109863,2.359375,0.53125,0.484375
1664889363013,0.05078125,-0.9890747,-0.057922363,1.546875,0.203125,0.28125
1664889363049,0.047607422,-1.0042114,-0.06402588,1.4375,0.953125,0.578125
1664889363092,0.06347656,-0.9883423,-0.05328369,2.234375,0.96875,0.578125
1664889363127,0.044433594,-0.9961548,-0.06329346,0.828125,0.421875,0.765625
1664889363171,0.059570312,-0.986145,-0.055236816,1.296875,0.640625,0.171875
1664889363205,0.049804688,-1.003479,-0.07891846,-1.40625,1.078125,-0.0625
1664889363250,0.052001953,-0.99224854,-0.035705566,2.828125,-0.5625,-0.125
1664889363282,0.05834961,-0.9854126,-0.08135986,-2.359375,-1.140625,-0.0625
1664889363327,0.04736328,-0.989563,-0.04888916,-1.359375,-0.296875,-1.1875
1664889363365,0.05126953,-1.0066528,-0.055725098,1.328125,-0.125,0.5
1664889363409,0.05493164,-0.98272705,-0.059387207,0.3125,0.109375,-0.40625
1664889363440,0.043945312,-0.99005127,-0.054016113,0.96875,-0.015625,0.25
1664889363486,0.048339844,-0.9973755,-0.059631348,0.6875,-0.78125,0.375
1664889363542,0.055419922,-0.9963989,-0.057922363,0.328125,-0.015625,0.015625
1664889363565,0.053955078,-0.9951782,-0.040100098,1.09375,0.640625,-0.0625
1664889363624,0.052246094,-0.9885864,-0.055236816,-1.296875,-0.4375,-0.03125
1664889363643,0.055908203,-0.9898071,-0.06964111,-2.203125,-2.109375,-0.984375
1664889363698,0.05078125,-0.9981079,-0.051574707,-0.328125,-0.28125,-0.515625
1664889363723,0.044433594,-0.9961548,-0.047668457,-0.6875,0.125,-0.359375
1664889363769,0.04663086,-0.991272,-0.045959473,-2.125,-1.34375,-0.5
1664889363804,0.04638672,-1.0049438,-0.05206299,0.125,-0.125,0.34375
1664889363835,0.041503906,-0.98150635,-0.016174316,1.0625,-0.734375,-0.484375
1664889363880,0.040527344,-1.0117798,-0.053771973,2.78125,-0.6875,1.734375
1664889363915,0.07397461,-0.97491455,-0.07476807,0.8125,-0.984375,-1.0
1664889363964,0.05029297,-1.0117798,-0.028381348,5.296875,1.125,0.234375
1664889363992,0.04321289,-0.98443604,-0.055480957,3.328125,0.421875,0.234375
1664889364059,0.055419922,-0.98516846,-0.059631348,0.78125,-0.0625,0.421875
1664889364070,0.04711914,-0.99713135,-0.06329346,1.25,-0.8125,-0.34375
1664889364116,0.045166016,-0.98687744,-0.058166504,-1.234375,-0.4375,-0.5625
1664889364195,0.05078125,-0.9961548,-0.059631348,0.359375,-0.09375,-0.15625
1664889364203,0.04638672,-0.9834595,-0.06060791,1.03125,0.140625,0.15625
1664889364251,0.044921875,-0.9927368,-0.06036377,0.265625,-0.015625,0.21875
1664889364284,0.052001953,-0.9963989,-0.0569458,-0.53125,-0.09375,-0.34375
1664889364307,0.04296875,-0.99468994,-0.051330566,-0.40625,-0.59375,0.109375
1664889364362,0.05493164,-0.99053955,-0.05987549,0.140625,0.25,-0.234375
1664889364385,0.049560547,-1.0015259,-0.06109619,-0.109375,0.125,0.0625
1664889364429,0.038330078,-0.9788208,-0.022033691,0.875,0.109375,-0.75
1664889364468,0.05078125,-1.0044556,-0.08331299,0.65625,-0.5,1.078125
1664889364511,0.048095703,-0.9915161,-0.05230713,-2.25,0.96875,-1.671875
1664889364545,0.043701172,-1.0056763,-0.0413208,3.375,-0.140625,0.8125
1664889364588,0.057861328,-0.9639282,-0.062316895,-0.234375,-0.015625,-0.1875
1664889364625,0.040039062,-0.99786377,-0.047180176,-0.203125,0.59375,-0.234375
1664889364665,0.04345703,-0.9944458,-0.059143066,1.21875,-0.453125,1.046875
1664889364702,0.05444336,-0.98150635,-0.05303955,0.390625,-0.234375,-0.4375
1664889364746,0.047851562,-0.99786377,-0.05255127,1.0625,0.484375,0.421875
1664889364784,0.052246094,-0.9871216,-0.05230713,0.09375,-0.546875,0.375
1664889364828,0.053955078,-0.98883057,-0.050842285,-0.015625,-0.109375,-0.203125
1664889364868,0.04663086,-1.000061,-0.054016113,-0.703125,0.046875,-0.390625
1664889364926,0.046142578,-0.99884033,-0.047180176,0.828125,-0.046875,0.21875
1664889364948,0.045898438,-0.9961548,-0.047180176,0.15625,-0.140625,-0.125
1664889365008,0.040283203,-1.0130005,-0.0647583,-1.21875,0.40625,0.28125
1664889365064,0.0625,-0.97735596,-0.03302002,3.96875,1.1875,-0.40625
1664889365069,0.043945312,-1.0303345,-0.06695557,7.15625,3.75,1.78125
1664889365105,0.045410156,-0.97003174,-0.054504395,2.890625,2.4375,-0.203125
1664889365139,0.035888672,-0.9890747,-0.055236816,4.625,0.3125,1.09375
1664889365186,0.051757812,-0.991272,-0.061828613,2.46875,1.390625,1.4375
1664889365220,0.047607422,-0.9902954,-0.074279785,1.890625,1.484375,0.046875
1664889365264,0.03930664,-1.0022583,-0.07598877,1.75,1.109375,1.515625
1664889365297,0.059570312,-0.9793091,-0.07574463,1.765625,1.03125,0.625
1664889365355,0.050048828,-0.98931885,-0.07672119,1.6875,1.4375,1.265625
1664889365376,0.06298828,-0.98760986,-0.07989502,1.40625,0.53125,1.234375
1664889365422,0.0637207,-0.9981079,-0.077941895,1.390625,1.1875,0.59375
1664889365458,0.05029297,-0.99713135,-0.07940674,0.328125,0.984375,0.90625
1664889365501,0.05810547,-0.98883057,-0.070129395,1.421875,0.84375,0.578125
1664889365534,0.048828125,-0.99591064,-0.08087158,0.0,0.5625,0.828125
1664889365577,0.05883789,-0.99298096,-0.07476807,0.90625,1.375,0.8125
1664889365612,0.068115234,-0.96954346,-0.051330566,0.6875,0.3125,-0.203125
1664889365681,0.052001953,-1.0105591,-0.085754395,1.125,0.125,1.53125
1664889365692,0.063964844,-0.97052,-0.093322754,-2.59375,-0.734375,-0.828125
1664889365747,0.06518555,-1.0108032,-0.062561035,0.515625,0.796875,0.375
1664889365771,0.05834961,-0.9866333,-0.0803833,0.640625,0.171875,0.40625
1664889365825,0.0637207,-0.9866333,-0.07989502,0.484375,0.3125,0.484375
1664889365849,0.057373047,-0.9961548,-0.07183838,0.21875,0.015625,0.34375
1664889365893,0.060546875,-0.9898071,-0.07086182,-0.71875,-0.640625,-0.546875
1664889365931,0.055419922,-0.99468994,-0.066467285,-1.046875,-1.125,-0.453125
1664889365971,0.059570312,-0.99420166,-0.058654785,1.015625,-0.703125,-0.453125
1664889366005,0.057128906,-0.99298096,-0.070617676,-0.109375,-0.703125,-0.515625
1664889366049,0.05419922,-0.9961548,-0.059631348,-3.28125,-1.90625,-1.328125
1664889366083,0.055908203,-0.99420166,-0.05255127,-3.390625,-2.484375,-1.765625
1664889366129,0.034179688,-1.0003052,-0.058654785,-6.140625,-3.5625,-1.40625
1664889366164,0.06933594,-0.9883423,-0.047180176,-1.4375,0.875,-0.890625
1664889366208,0.06933594,-0.975647,-0.046936035,-4.4375,-0.953125,-0.828125
1664889366242,0.03491211,-1.0032349,-0.03765869,5.140625,0.421875,0.078125
1664889366286,0.05859375,-0.9807739,-0.07330322,-2.921875,-0.40625,-0.625
1664889366320,0.056396484,-1.0110474,-0.0256958,3.390625,-0.53125,-0.375
1664889366365,0.037109375,-0.99420166,-0.04425049,10.28125,-0.484375,1.53125
1664889366401,0.056640625,-0.98443604,-0.07550049,6.203125,-0.15625,1.734375
1664889366457,0.052001953,-0.98272705,-0.06378174,5.375,-0.34375,0.265625
1664889366480,0.060302734,-0.9985962,-0.062805176,3.09375,0.28125,1.21875
1664889366534,0.05078125,-0.99005127,-0.08258057,3.765625,0.1875,0.671875
1664889366557,0.051757812,-0.9776001,-0.09136963,2.640625,-0.203125,0.40625
1664889366615,0.06518555,-0.9907837,-0.08111572,1.796875,-0.171875,0.5
1664889366634,0.057128906,-0.99468994,-0.0881958,1.0625,0.03125,0.015625
1664889366683,0.05444336,-0.99053955,-0.09503174,1.65625,-0.046875,0.671875
1664889366718,0.055664062,-0.98394775,-0.09185791,1.359375,0.140625,0.59375
1664889366762,0.061767578,-0.9915161,-0.07501221,0.5,0.15625,0.140625
1664889366839,0.07080078,-0.9692993,-0.078186035,-1.046875,-1.046875,-0.265625
1664889366844,0.061523438,-0.99835205,-0.09942627,2.921875,0.21875,0.609375
1664889366873,0.06298828,-0.97613525,-0.085510254,-2.453125,-0.578125,-1.0625
1664889366916,0.05493164,-0.9976196,-0.06329346,0.15625,-0.28125,0.109375
1664889366953,0.0637207,-0.97613525,-0.089660645,-0.9375,0.6875,-0.3125
1664889367002,0.05493164,-0.98638916,-0.086242676,-0.84375,0.25,-0.515625
1664889367030,0.04663086,-1.0015259,-0.07110596,0.40625,-0.21875,0.125
1664889367074,0.06958008,-0.9812622,-0.06964111,-1.328125,-0.484375,0.078125
1664889367109,0.053955078,-0.9937134,-0.07745361,-1.1875,0.1875,-0.640625
1664889367157,0.055664062,-0.9998169,-0.0725708,0.34375,0.21875,0.09375
1664889367211,0.05908203,-0.98687744,-0.06744385,-0.265625,-0.390625,-0.296875
1664889367231,0.056396484,-0.9968872,-0.07696533,-0.953125,0.03125,-0.40625
1664889367288,0.064208984,-0.9951782,-0.07281494,3.0625,0.6875,0.09375
1664889367311,0.046142578,-0.9871216,-0.06890869,2.984375,0.953125,0.359375
1664889367359,0.056152344,-0.99420166,-0.070617676,2.890625,1.0,0.484375
1664889367389,0.07080078,-0.95880127,-0.066223145,0.234375,0.671875,-0.140625
1664889367423,0.032958984,-1.0154419,-0.08331299,4.671875,1.09375,1.65625
1664889367468,0.07006836,-0.97247314,-0.097229004,-2.734375,-0.5625,-0.59375
1664889367513,0.0546875,-1.0005493,-0.06085205,0.265625,1.28125,-0.296875
1664889367548,0.051757812,-0.99346924,-0.078186035,1.390625,0.71875,1.015625
1664889367596,0.06201172,-0.9768677,-0.082092285,1.796875,0.46875,0.0625
1664889367634,0.04345703,-1.00177,-0.07965088,0.453125,0.234375,0.734375
1664889367670,0.064208984,-0.9846802,-0.07672119,0.921875,-0.1875,0.4375
1664889367704,0.06542969,-0.9834595,-0.085754395,0.84375,0.4375,0.09375
1664889367789,0.051757812,-0.9963989,-0.082336426,1.734375,0.734375,0.4375
1664889367797,0.055419922,-0.99176025,-0.0869751,1.0,-0.171875,1.015625
1664889367829,0.064697266,-0.9829712,-0.08087158,0.453125,0.5625,0.25
1664889367862,0.053955078,-0.9976196,-0.08331299,-0.15625,0.375,0.421875
1664889367918,0.0690918,-0.98272705,-0.08087158,0.546875,-0.1875,0.421875
1664889367941,0.056640625,-0.9817505,-0.08062744,0.703125,0.171875,0.484375
1664889367997,0.06616211,-0.9807739,-0.082092285,-2.203125,-0.109375,-0.390625
1664889368020,0.053710938,-1.0015259,-0.06964111,3.203125,0.03125,0.4375
1664889368064,0.064453125,-0.98150635,-0.09820557,-4.40625,-1.609375,-0.6875
1664889368099,0.06689453,-0.9968872,-0.06427002,-1.703125,-0.375,-1.5
1664889368145,0.053222656,-1.000061,-0.06378174,-1.3125,-1.0625,-0.234375
1664889368182,0.051757812,-0.987854,-0.070617676,-0.984375,-1.375,-0.78125
1664889368225,0.044433594,-0.987854,-0.059387207,0.0,-0.96875,0.046875
1664889368255,0.055419922,-0.98394775,-0.047424316,-1.78125,-1.390625,-0.3125
1664889368300,0.060791016,-0.9937134,-0.07183838,0.359375,-0.171875,-0.25
1664889368339,0.046875,-0.9949341,-0.066467285,2.171875,-0.78125,0.078125
1664889368382,0.05834961,-0.9907837,-0.066467285,-0.078125,-1.15625,-0.078125
1664889368417,0.06933594,-1.0007935,-0.07110596,0.75,-0.125,-0.171875
1664889368464,0.05883789,-0.99713135,-0.07086182,0.796875,-0.265625,0.21875
1664889368493,0.052490234,-0.98760986,-0.05596924,0.359375,-1.171875,-0.125
1664889368536,0.061523438,-0.98272705,-0.07086182,-1.203125,-1.890625,-0.75
1664889368595,0.06347656,-0.98883057,-0.08306885,-2.6875,-0.609375,-0.25
1664889368620,0.041748047,-1.006897,-0.042785645,2.828125,-0.5,-0.09375
1664889368671,0.061523438,-0.9807739,-0.07159424,-4.34375,-1.5625,-0.8125
1664889368695,0.052246094,-1.0054321,-0.04815674,0.8125,-0.203125,-0.765625
1664889368750,0.03857422,-0.9924927,-0.057922363,2.03125,-0.71875,0.46875
1664889368773,0.052001953,-0.9849243,-0.057434082,0.625,0.46875,-0.0625
1664889368808,0.03881836,-0.99664307,-0.05328369,0.96875,-0.0625,0.09375
1664889368851,0.057373047,-0.9956665,-0.051086426,1.21875,-0.484375,0.4375
1664889368887,0.052490234,-0.9949341,-0.07330322,1.21875,-0.09375,0.296875
1664889368934,0.052490234,-0.987854,-0.062805176,2.28125,0.25,0.296875
1664889368964,0.056152344,-0.986145,-0.061340332,1.203125,-0.296875,0.234375
1664889369011,0.057128906,-0.991272,-0.066467285,0.296875,0.015625,-0.109375
1664889369046,0.04296875,-1.00177,-0.062316895,1.015625,0.078125,-0.046875
1664889369091,0.057861328,-0.987854,-0.066223145,0.484375,-0.46875,0.078125
1664889369121,0.05810547,-0.97320557,-0.058898926,0.78125,0.40625,-0.125
1664889369179,0.055664062,-0.9795532,-0.070617676,-2.78125,-0.765625,-0.375
1664889369205,0.04736328,-1.0090942,-0.05596924,3.390625,0.625,0.453125
1664889369245,0.05810547,-0.96881104,-0.06524658,-4.578125,-0.8125,-1.390625
1664889369279,0.053222656,-1.0176392,-0.042785645,0.96875,-0.25,-0.203125
1664889369326,0.04321289,-0.9837036,-0.055480957,1.03125,-0.34375,0.25
1664889369380,0.05444336,-0.9937134,-0.058410645,-0.953125,0.546875,-0.34375
1664889369403,0.04345703,-0.9932251,-0.046691895,1.5,0.359375,0.140625
1664889369497,0.053466797,-0.98809814,-0.054992676,0.71875,-0.234375,0.5
1664889369503,0.05053711,-0.9920044,-0.06427002,0.59375,0.28125,-0.125
1664889369515,0.052734375,-0.9981079,-0.057434082,1.46875,0.65625,0.3125
1664889369560,0.05419922,-0.9927368,-0.0569458,1.03125,-0.0625,0.21875
1664889369596,0.056152344,-0.99224854,-0.05596924,1.359375,0.8125,-0.078125
1664889369640,0.045654297,-0.99713135,-0.0635376,0.78125,0.515625,0.25
1664889369675,0.059570312,-0.98516846,-0.05303955,1.671875,0.28125,0.28125
1664889369721,0.046875,-0.98223877,-0.0569458,1.21875,0.5625,0.28125
1664889369752,0.06274414,-0.9968872,-0.086242676,-1.265625,0.609375,0.328125
1664889369797,0.034179688,-0.99591064,-0.039367676,5.203125,0.828125,0.421875
1664889369833,0.05883789,-0.9873657,-0.08453369,-2.0,-0.0625,0.328125
1664889369875,0.049560547,-0.9871216,-0.050842285,-0.109375,0.59375,-0.59375
1664889369911,0.05029297,-1.0027466,-0.051818848,2.203125,0.59375,0.890625
1664889369954,0.053710938,-0.9824829,-0.06378174,1.296875,0.96875,0.59375
1664889369989,0.05078125,-0.98760986,-0.062316895,1.671875,0.890625,0.875
1664889370035,0.05859375,-0.99346924,-0.06768799,0.84375,-0.015625,1.015625
1664889370066,0.06762695,-0.9902954,-0.07232666,0.78125,0.203125,1.03125
1664889370123,0.049804688,-0.9937134,-0.059631348,0.9375,0.46875,0.703125
1664889370180,0.056884766,-0.98931885,-0.073791504,0.78125,0.0,1.125
1664889370190,0.06225586,-0.9927368,-0.06964111,-0.15625,0.5625,0.59375
1664889370249,0.056884766,-1.0022583,-0.05987549,0.625,0.5,-0.015625
1664889370274,0.048095703,-0.9834595,-0.06695557,0.875,0.3125,0.71875
1664889370315,0.06567383,-0.9849243,-0.06304932,0.328125,-0.078125,0.296875
1664889370349,0.07348633,-0.989563,-0.086242676,-2.25,-0.359375,0.046875
1664889370426,0.045654297,-1.0037231,-0.043762207,3.125,0.015625,0.09375
1664889370433,0.06640625,-0.97857666,-0.08453369,-2.296875,-0.328125,0.265625
1664889370484,0.06640625,-0.9937134,-0.04937744,-0.953125,-0.140625,-0.953125
1664889370505,0.05029297,-0.99713135,-0.05328369,1.359375,0.4375,0.3125
1664889370549,0.056640625,-0.9907837,-0.06549072,0.484375,0.1875,0.21875
1664889370584,0.05834961,-0.9800415,-0.05718994,0.765625,0.015625,0.421875
1664889370630,0.059326172,-0.99713135,-0.0647583,0.78125,-0.15625,0.484375
1664889370666,0.064941406,-0.99176025,-0.07720947,0.78125,0.21875,-0.15625
1664889370710,0.059326172,-0.99298096,-0.06011963,1.4375,0.703125,0.265625
1664889370744,0.060791016,-0.9883423,-0.059143066,0.796875,-0.140625,0.28125
1664889370798,0.057617188,-0.9927368,-0.06378174,0.515625,0.328125,0.078125
1664889370820,0.064941406,-0.99664307,-0.062805176,0.21875,0.21875,0.25
1664889370877,0.06274414,-0.98516846,-0.059143066,0.71875,0.296875,0.03125
1664889370899,0.0637207,-0.99591064,-0.061828613,0.1875,0.125,0.296875
1664889370956,0.071777344,-0.9907837,-0.08355713,-1.3125,0.03125,-0.015625
1664889370979,0.050048828,-1.0020142,-0.04547119,3.546875,0.375,0.3125
1664889371023,0.06640625,-0.9866333,-0.07647705,-1.140625,-0.671875,0.140625
1664889371056,0.06542969,-0.9907837,-0.05230713,-0.609375,-0.140625,-0.96875
1664889371113,0.056152344,-1.0029907,-0.053771973,1.375,0.40625,0.421875
1664889371135,0.057128906,-0.98638916,-0.06036377,0.59375,0.1875,-0.03125
1664889371180,0.055419922,-0.9937134,-0.055480957,-0.046875,-0.1875,0.4375
1664889371217,0.059570312,-0.9915161,-0.05255127,0.65625,-0.171875,-0.234375
1664889371261,0.061523438,-0.99346924,-0.07159424,0.640625,0.1875,0.0
1664889371293,0.06518555,-0.9907837,-0.06060791,1.53125,-0.34375,0.1875
1664889371337,0.057128906,-0.989563,-0.059143066,0.640625,-0.546875,-0.078125
1664889371372,0.055664062,-0.9990845,-0.06719971,0.921875,-0.046875,0.015625
1664889371417,0.0715332,-0.9883423,-0.05718994,0.625,-0.71875,-0.140625
1664889371451,0.05102539,-0.99176025,-0.058898926,0.546875,-0.4375,-0.015625
1664889371495,0.055908203,-0.9920044,-0.065979004,0.234375,-0.03125,-0.171875
1664889371531,0.07006836,-0.9993286,-0.07623291,-0.75,0.53125,-0.390625
1664889371599,0.049560547,-0.9871216,-0.039611816,2.1875,-0.015625,-0.796875
1664889371610,0.0637207,-0.9981079,-0.07598877,-1.078125,0.0,-0.453125
1664889371667,0.053710938,-0.97979736,-0.06036377,-0.65625,-0.515625,-1.921875
1664889371687,0.048828125,-1.0007935,-0.05206299,1.8125,-0.40625,0.40625
1664889371748,0.06591797,-0.987854,-0.05596924,0.59375,0.140625,-0.546875
1664889371765,0.039794922,-0.9859009,-0.057922363,0.875,0.671875,0.015625
1664889371814,0.053466797,-0.99786377,-0.06402588,1.765625,-0.53125,0.53125
1664889371846,0.05517578,-0.9873657,-0.06329346,0.78125,-0.359375,-0.375
1664889371893,0.04711914,-0.99176025,-0.05670166,0.671875,0.578125,-0.8125
1664889371922,0.057861328,-0.98223877,-0.06085205,1.328125,0.078125,-0.375
1664889371969,0.044921875,-0.9944458,-0.06085205,0.0,-0.03125,-0.46875
1664889372004,0.057128906,-0.9973755,-0.06378174,0.9375,0.0625,-0.125
1664889372049,0.04736328,-0.99346924,-0.062316895,1.78125,-0.015625,0.125
1664889372080,0.05834961,-0.9937134,-0.074279785,0.703125,-0.125,0.484375
1664889372126,0.043945312,-0.9990845,-0.062805176,0.5,0.109375,-0.03125
1664889372160,0.05859375,-0.97979736,-0.032287598,0.265625,-0.625,-1.0625
1664889372206,0.04711914,-1.0073853,-0.07989502,1.078125,-0.671875,0.8125
1664889372262,0.055908203,-0.98028564,-0.06768799,-4.265625,-0.5,-1.703125
1664889372283,0.043945312,-1.0144653,-0.04034424,1.15625,-0.828125,-0.15625
1664889372342,0.057128906,-0.9817505,-0.06793213,0.71875,-0.484375,0.03125
1664889372361,0.053222656,-0.98321533,-0.05987549,-0.90625,-0.28125,-0.28125
1664889372394,0.04711914,-1.0039673,-0.057922363,0.71875,-0.390625,0.234375
1664889372440,0.049316406,-0.9854126,-0.059143066,-0.0625,-0.921875,0.03125
1664889372475,0.052978516,-0.99298096,-0.051574707,0.625,-0.6875,-0.078125
1664889372523,0.044677734,-0.9890747,-0.057678223,1.015625,-0.5,0.015625
1664889372554,0.056396484,-0.99224854,-0.06060791,1.109375,-0.546875,0.203125
1664889372597,0.05029297,-0.9949341,-0.054016113,0.453125,0.03125,-0.046875
1664889372631,0.047607422,-0.99102783,-0.0569458,0.4375,-0.46875,0.21875
1664889372677,0.045166016,-0.98883057,-0.054504395,0.4375,0.09375,-0.15625
1664889372713,0.03930664,-1.0044556,-0.0635376,0.3125,0.265625,0.0625
1664889372756,0.05810547,-0.975647,-0.024475098,0.109375,-0.6875,-0.5
1664889372800,0.041503906,-1.0088501,-0.07598877,1.484375,-0.0625,0.734375
1664889372833,0.05493164,-0.97320557,-0.051574707,-2.84375,-0.34375,-1.359375
1664889372878,0.045654297,-1.0020142,-0.035949707,1.28125,-0.515625,0.21875
1664889372912,0.057861328,-0.9834595,-0.055480957,0.078125,0.0625,0.09375
1664889373003,0.052978516,-0.9937134,-0.050354004,-0.8125,0.71875,-0.265625
1664889373007,0.033203125,-1.0003052,-0.05279541,1.265625,-0.296875,0.65625
1664889373093,0.05859375,-0.97857666,-0.045715332,0.359375,-0.5,0.34375
1664889373096,0.04321289,-0.99713135,-0.047180176,0.046875,-0.03125,0.171875
1664889373116,0.052001953,-0.99224854,-0.055236816,1.0625,0.109375,0.453125
1664889373149,0.05419922,-0.9846802,-0.045715332,0.125,-0.34375,0.21875
1664889373195,0.044677734,-0.99957275,-0.046936035,-0.3125,0.359375,-0.109375
1664889373229,0.047851562,-0.99053955,-0.04864502,1.25,0.28125,0.328125
1664889373274,0.045166016,-0.9968872,-0.055236816,2.828125,0.96875,1.109375
1664889373308,0.046142578,-0.99005127,-0.0491333,2.21875,-0.015625,0.671875
1664889373358,0.064941406,-0.97784424,-0.05230713,-1.59375,0.015625,0.125
1664889373388,0.03564453,-1.0042114,-0.042541504,4.578125,0.484375,1.0
1664889373432,0.053466797,-0.97784424,-0.07110596,-3.46875,-0.125,-0.28125
1664889373464,0.05834961,-0.9973755,-0.03302002,0.578125,0.375,-0.25
1664889373509,0.05029297,-0.9956665,-0.045959473,1.3125,0.484375,0.609375
1664889373545,0.057617188,-0.98883057,-0.054992676,0.890625,0.828125,0.265625
1664889373588,0.05053711,-0.9951782,-0.050109863,1.953125,0.453125,0.5625
1664889373623,0.051757812,-0.9944458,-0.049621582,0.359375,-0.046875,0.609375
1664889373666,0.060302734,-0.986145,-0.06451416,1.640625,0.296875,0.28125
1664889373700,0.04663086,-0.991272,-0.051330566,1.4375,0.265625,0.8125
1664889373759,0.060546875,-0.98638916,-0.0491333,1.453125,0.3125,0.375
1664889373780,0.056152344,-0.9973755,-0.061584473,1.5625,0.140625,0.265625
1664889373835,0.050048828,-0.9951782,-0.0635376,1.109375,0.28125,0.5625
1664889373862,0.061279297,-0.9902954,-0.058654785,1.25,0.265625,0.25
1664889373905,0.05102539,-0.989563,-0.05621338,0.578125,-0.15625,0.515625
1664889373938,0.06274414,-0.9841919,-0.0791626,-1.234375,0.09375,-0.09375
1664889373981,0.047607422,-0.99835205,-0.04547119,3.640625,0.171875,0.328125
1664889374015,0.06640625,-0.9873657,-0.074035645,-2.59375,-0.75,0.109375
1664889374064,0.057617188,-0.9817505,-0.038146973,-0.9375,-0.78125,-1.125
1664889374098,0.05029297,-1.0037231,-0.04840088,-0.046875,-0.421875,0.421875
1664889374140,0.049560547,-0.9824829,-0.062561035,-0.265625,-0.515625,-0.671875
1664889374176,0.04736328,-0.9968872,-0.049865723,1.703125,0.0625,0.5
1664889374222,0.05517578,-0.9944458,-0.0569458,1.3125,-0.40625,0.515625
1664889374252,0.06298828,-0.9902954,-0.05621338,1.046875,-0.28125,-0.0625
1664889374308,0.055419922,-0.9898071,-0.04888916,-0.984375,-0.890625,-0.421875
1664889374332,0.07446289,-0.98150635,-0.04547119,-0.546875,-3.46875,-1.03125
1664889374376,0.04711914,-0.989563,-0.046447754,-2.203125,-5.515625,-1.625
1664889374435,0.030029297,-1.0037231,-0.046936035,0.5,-1.140625,-1.171875
1664889374455,0.06933594,-0.9883423,-0.046691895,0.21875,-1.234375,0.359375
1664889374511,0.037841797,-0.98931885,-0.05621338,0.5625,-0.75,-0.78125
1664889374532,0.04248047,-1.0064087,-0.046203613,0.96875,-0.109375,0.15625
1664889374579,0.05419922,-0.98321533,-0.022277832,0.546875,-1.140625,-1.09375
1664889374614,0.05102539,-1.0108032,-0.065979004,0.90625,-0.890625,0.703125
1664889374646,0.041503906,-0.98028564,-0.05596924,-3.09375,-0.296875,-1.84375
1664889374691,0.046142578,-1.0125122,-0.028625488,1.109375,-0.71875,0.28125
1664889374724,0.051513672,-0.9829712,-0.04034424,-0.828125,-1.171875,-0.546875
1664889374772,0.056396484,-1.0142212,-0.066223145,-3.6875,-2.015625,-0.75
1664889374806,0.037109375,-0.9812622,-0.024719238,-1.84375,-3.359375,-0.015625
1664889374853,0.04272461,-0.9883423,-0.027648926,-1.484375,0.171875,-0.171875
1664889374881,0.04663086,-1.0010376,-0.02960205,0.59375,-0.078125,-0.0625
1664889374927,0.041503906,-0.98638916,-0.034240723,0.78125,-1.171875,0.015625
1664889374961,0.045166016,-0.99053955,-0.0335083,0.109375,-1.03125,-0.375
1664889375008,0.046142578,-0.99664307,-0.023254395,-0.640625,-0.5,-0.578125
1664889375038,0.03955078,-1.0012817,-0.030578613,-1.015625,-0.3125,-0.21875
1664889375086,0.048583984,-0.98565674,-0.021057129,-0.171875,-0.8125,-0.140625
1664889375118,0.03857422,-0.9981079,-0.023254395,0.5625,-0.453125,0.40625
1664889375162,0.059814453,-0.97735596,-0.020812988,-2.046875,-0.640625,-0.765625
1664889375218,0.02758789,-1.0125122,-0.023742676,3.671875,-0.03125,0.765625
1664889375241,0.0637207,-0.9663696,-0.024475098,-2.984375,-0.921875,-1.046875
1664889375299,0.038330078,-1.0203247,-0.007873535,1.90625,0.0625,-0.125
1664889375321,0.04248047,-0.989563,-0.034729004,1.25,-0.3125,0.46875
1664889375366,0.049804688,-0.991272,-0.024230957,0.28125,0.9375,-0.28125
1664889375401,0.032470703,-1.0098267,-0.018371582,2.1875,0.796875,0.671875
1664889375445,0.05517578,-0.9800415,-0.0178833,1.171875,-0.234375,0.8125
1664889375479,0.041748047,-1.0003052,-0.03277588,0.765625,0.265625,0.0625
1664889375524,0.047851562,-0.9902954,-0.026672363,1.953125,0.078125,0.765625
1664889375580,0.044677734,-0.99420166,-0.023498535,0.640625,0.25,-0.1875
1664889375635,0.044921875,-0.99884033,-0.026672363,0.625,0.515625,0.09375
1664889375640,0.04248047,-0.9920044,-0.032043457,0.984375,0.3125,0.21875
1664889375714,0.043945312,-0.9956665,-0.02545166,1.015625,0.421875,0.390625
1664889375719,0.049560547,-0.99542236,-0.024475098,0.4375,0.46875,0.078125
1664889375760,0.057128906,-0.9939575,-0.05718994,-1.9375,0.28125,0.03125
1664889375797,0.035888672,-1.0025024,-0.0022583008,3.90625,0.375,0.46875
1664889375838,0.056396484,-0.9866333,-0.054992676,-2.984375,-0.90625,-0.09375
1664889375873,0.047607422,-1.0044556,-0.023986816,-0.625,0.34375,-0.953125
1664889375931,0.032470703,-1.0044556,-0.012512207,2.25,0.171875,0.59375
1664889375976,0.053710938,-0.9812622,-0.025939941,0.265625,0.0,0.140625
1664889375999,0.045654297,-0.991272,-0.023742676,0.546875,0.609375,0.0625
1664889376053,0.03125,-1.0005493,-0.031555176,1.03125,0.140625,0.625
1664889376074,0.05078125,-0.9873657,-0.035461426,0.71875,-0.046875,-0.015625
1664889376131,0.042236328,-0.9937134,-0.015686035,2.15625,1.0,0.21875
1664889376153,0.041503906,-1.0015259,-0.031555176,2.484375,0.5,0.890625
1664889376186,0.048339844,-0.98516846,-0.03277588,1.875,0.296875,0.53125
1664889376232,0.048339844,-0.9963989,-0.0256958,0.65625,0.8125,0.015625
1664889376265,0.045166016,-0.99786377,-0.039611816,0.90625,0.65625,0.4375
1664889376310,0.057373047,-0.986145,-0.02960205,2.390625,0.84375,0.359375
1664889376348,0.034423828,-0.99664307,-0.035705566,1.1875,1.0625,0.421875
1664889376389,0.057128906,-0.9795532,-0.020568848,0.4375,0.4375,-0.296875
1664889376423,0.03955078,-1.0095825,-0.033996582,3.5625,0.9375,1.078125
1664889376470,0.04345703,-0.98028564,-0.05328369,-3.046875,-0.171875,-0.703125
1664889376500,0.06298828,-1.0020142,-0.018371582,1.84375,0.9375,-0.015625
1664889376547,0.041015625,-0.9944458,-0.035217285,1.3125,0.390625,0.359375
1664889376581,0.05126953,-0.99005127,-0.046447754,1.46875,1.09375,-0.03125
1664889376638,0.04663086,-0.9998169,-0.03277588,2.296875,1.15625,0.125
1664889376659,0.043945312,-0.9902954,-0.034484863,1.0625,-0.28125,0.5625
1664889376716,0.057617188,-0.9841919,-0.043273926,1.171875,0.390625,0.078125
1664889376738,0.044921875,-1.0003052,-0.044006348,1.71875,1.078125,0.65625
1664889376794,0.04638672,-0.9883423,-0.044006348,1.484375,0.34375,0.765625
1664889376827,0.05810547,-0.98931885,-0.046447754,1.015625,1.125,0.171875
1664889376872,0.041748047,-0.9990845,-0.039611816,0.265625,1.046875,0.25
1664889376895,0.056152344,-0.9973755,-0.04083252,1.34375,0.53125,0.640625
1664889376940,0.048095703,-0.987854,-0.050354004,0.90625,0.71875,0.484375
1664889376974,0.04638672,-1.008606,-0.06890869,-0.75,0.734375,0.65625
1664889377020,0.053710938,-0.9829712,-0.01739502,1.1875,-0.296875,-0.46875
1664889377055,0.053466797,-0.9973755,-0.0635376,-1.0625,0.203125,0.65625
1664889377099,0.05029297,-0.99102783,-0.041809082,-0.984375,-0.375,-0.796875
1664889377133,0.045898438,-1.0032349,-0.031555176,1.46875,0.78125,-0.109375
1664889377178,0.048828125,-0.9866333,-0.047180176,0.390625,0.28125,0.125
1664889377210,0.060058594,-0.987854,-0.04815674,2.609375,0.21875,0.609375
1664889377256,0.041748047,-0.9998169,-0.046691895,2.203125,0.25,0.5625
1664889377293,0.053710938,-0.98443604,-0.04156494,0.65625,-0.078125,0.328125
1664889377336,0.05078125,-0.99542236,-0.04107666,1.71875,0.046875,0.1875
1664889377373,0.04711914,-0.9968872,-0.05645752,1.171875,-0.28125,0.46875
1664889377425,0.06201172,-0.9932251,-0.046691895,2.015625,0.203125,0.109375
1664889377447,0.045654297,-0.99346924,-0.050109863,1.5625,0.25,-0.171875
1664889377507,0.05126953,-0.99102783,-0.047180176,1.609375,-0.015625,0.046875
1664889377528,0.049804688,-0.9837036,-0.046691895,2.234375,0.078125,0.109375
1664889377582,0.046142578,-0.98760986,-0.058410645,1.828125,-0.265625,-0.171875
1664889377609,0.06713867,-0.9871216,-0.06719971,0.609375,-0.390625,-0.25
1664889377655,0.041992188,-0.9951782,-0.04083252,6.46875,1.265625,0.515625
1664889377685,0.052001953,-0.98565674,-0.09039307,-0.8125,0.140625,0.453125
1664889377728,0.060302734,-0.9866333,-0.04888916,1.359375,0.234375,-1.140625
1664889377762,0.03881836,-1.008606,-0.05328369,3.4375,0.609375,0.453125
1664889377807,0.044677734,-0.98565674,-0.06915283,2.484375,0.453125,0.140625
1664889377842,0.05908203,-0.97784424,-0.074523926,1.203125,-0.0625,-0.296875
1664889377888,0.06201172,-0.99835205,-0.07745361,1.359375,0.109375,0.234375
1664889377922,0.051757812,-0.9841919,-0.08453369,2.09375,0.140625,-0.109375
1664889377968,0.052246094,-0.9915161,-0.08306885,1.671875,0.0,0.109375
1664889377998,0.055664062,-0.98931885,-0.07525635,1.796875,-0.140625,0.21875
1664889378043,0.05029297,-0.98883057,-0.089904785,0.484375,-0.359375,-0.140625
1664889378092,0.048095703,-0.9976196,-0.07232666,0.859375,-0.375,-0.03125
1664889378121,0.049804688,-0.98760986,-0.07745361,0.046875,-0.4375,-0.015625
1664889378170,0.051513672,-0.98931885,-0.08502197,-1.03125,-0.53125,-0.328125
1664889378227,0.05883789,-1.000061,-0.08453369,-0.46875,-0.375,0.0
1664889378279,0.044677734,-0.9793091,-0.057922363,1.234375,-1.03125,-0.828125
1664889378284,0.05078125,-1.0066528,-0.09063721,0.359375,-2.171875,0.625
1664889378324,0.047851562,-0.9883423,-0.07696533,-2.59375,-0.625,-1.5625
1664889378362,0.05883789,-1.0010376,-0.055480957,2.3125,-0.609375,0.4375
1664889378403,0.049560547,-0.9763794,-0.08135986,-0.625,-0.5625,-0.25
1664889378437,0.046142578,-0.99346924,-0.07208252,-1.5625,-0.234375,-0.6875
1664889378491,0.044921875,-0.9937134,-0.070373535,2.46875,-0.6875,0.59375
1664889378516,0.056884766,-0.9834595,-0.06524658,0.71875,-0.0625,-0.296875
1664889378561,0.045410156,-0.99713135,-0.06768799,0.46875,0.078125,0.0625
1664889378593,0.049072266,-0.98272705,-0.077697754,0.953125,-0.328125,-0.03125
1664889378639,0.055664062,-0.99005127,-0.06939697,1.03125,-0.078125,0.140625
1664889378674,0.05493164,-0.99053955,-0.07232666,0.03125,0.015625,-0.15625
1664889378718,0.049072266,-0.9866333,-0.07086182,0.03125,0.0625,-0.328125
1664889378753,0.049316406,-0.99420166,-0.07110596,0.015625,0.40625,-0.15625
1664889378810,0.046142578,-1.0044556,-0.08135986,-0.25,0.59375,-0.015625
1664889378831,0.044921875,-0.9768677,-0.040100098,0.15625,0.21875,-1.046875
1664889378888,0.04248047,-1.00177,-0.089660645,0.484375,-0.0625,0.75
1664889378910,0.048583984,-0.98101807,-0.06109619,-2.734375,0.390625,-1.53125
1664889378968,0.041503906,-1.0064087,-0.047180176,0.9375,-0.40625,0.34375
1664889378989,0.041503906,-0.9817505,-0.0647583,-0.328125,-0.140625,-0.203125
1664889379033,0.05126953,-0.99713135,-0.07305908,-1.21875,0.34375,-0.125
1664889379068,0.03540039,-1.0039673,-0.05303955,1.34375,0.484375,0.15625
1664889379114,0.048583984,-0.9829712,-0.04937744,0.296875,-0.15625,-0.0625
1664889379147,0.041748047,-0.99224854,-0.06329346,-0.4375,-0.71875,0.046875
1664889379194,0.045410156,-0.991272,-0.065979004,-0.640625,-0.125,0.109375
1664889379227,0.052490234,-0.9854126,-0.054992676,-0.453125,-0.46875,-0.078125
1664889379270,0.03857422,-0.99884033,-0.054504395,-0.625,0.046875,-0.421875
1664889379306,0.0390625,-0.9949341,-0.051086426,-0.40625,-0.3125,0.421875
1664889379349,0.04321289,-0.986145,-0.055236816,-0.5,-0.53125,0.0
1664889379383,0.03955078,-1.0073853,-0.06036377,-1.421875,0.453125,-0.234375
1664889379440,0.049316406,-0.97662354,-0.026184082,-0.625,-0.203125,-0.484375
1664889379462,0.03466797,-1.0088501,-0.05645752,1.859375,0.296875,1.125
1664889379505,0.051513672,-0.99176025,-0.054992676,-3.953125,-0.109375,-0.75
1664889379540,0.045898438,-0.99053955,-0.026672363,0.578125,0.265625,0.03125
1664889379595,0.035888672,-0.99835205,-0.034973145,0.890625,-0.015625,0.53125
1664889379618,0.049804688,-0.98443604,-0.035217285,0.84375,0.59375,0.109375
1664889379674,0.039794922,-0.9961548,-0.039123535,1.234375,0.34375,0.09375
1664889379699,0.046875,-0.9981079,-0.04034424,1.0625,-0.4375,0.921875
1664889379759,0.05053711,-0.9885864,-0.046691895,0.890625,0.0,0.234375
1664889379779,0.040771484,-1.0020142,-0.047180176,1.25,0.890625,0.53125
1664889379822,0.052490234,-0.99005127,-0.047424316,1.0,-0.015625,0.65625
1664889379854,0.049072266,-0.99542236,-0.035705566,1.078125,0.9375,0.078125
1664889379900,0.037109375,-0.9993286,-0.04107666,1.15625,0.640625,0.53125
1664889379934,0.048828125,-0.9907837,-0.04083252,0.671875,0.5625,0.328125
1664889379978,0.048828125,-1.0025024,-0.046203613,0.765625,0.5625,0.453125
1664889380013,0.05126953,-0.9727173,-0.03302002,-1.125,-0.734375,-0.609375
1664889380056,0.039794922,-1.0127563,-0.046936035,2.96875,0.171875,1.234375
1664889380090,0.057617188,-0.9817505,-0.06915283,-3.171875,-1.1875,-0.3125
1664889380136,0.045166016,-0.9998169,-0.028869629,0.203125,0.484375,-0.453125
1664889380169,0.047607422,-0.99591064,-0.03326416,0.359375,0.421875,0.171875
1664889380214,0.045654297,-0.991272,-0.038146973,-0.4375,-0.015625,-0.296875
1664889380249,0.0390625,-0.99542236,-0.024475098,0.046875,-0.625,-0.375
1664889380292,0.045654297,-1.003479,-0.027648926,0.921875,-0.640625,0.21875
1664889380349,0.046142578,-0.9956665,-0.045715332,0.078125,0.0,0.03125
1664889380372,0.04711914,-0.99542236,-0.03253174,1.578125,0.1875,-0.03125
1664889380427,0.04296875,-0.9961548,-0.03643799,0.484375,-0.03125,0.03125
1664889380450,0.046875,-0.9883423,-0.02520752,-0.859375,-0.546875,-0.546875
1664889380486,0.031982422,-0.99713135,-0.039611816,-1.953125,-0.640625,-1.046875
1664889380533,0.03930664,-0.9932251,-0.046203613,0.0625,-0.625,0.359375
1664889380565,0.056152344,-0.9812622,-0.014953613,1.765625,-1.09375,-1.015625
1664889380607,0.04345703,-0.9924927,-0.020812988,-0.296875,-0.140625,-0.296875
1664889380643,0.029541016,-1.0037231,-0.031066895,4.71875,-0.125,1.0
1664889380702,0.060791016,-0.9837036,-0.04815674,-1.59375,-0.703125,-0.328125
1664889380745,0.03564453,-1.0169067,-0.023986816,2.5625,0.546875,-0.015625
1664889380770,0.046142578,-0.99468994,-0.038879395,2.078125,0.46875,0.734375
1664889380847,0.04321289,-0.99005127,-0.045959473,1.046875,0.890625,0.09375
1664889380853,0.036865234,-0.9956665,-0.038146973,1.75,0.109375,0.234375
1664889380890,0.052490234,-0.9949341,-0.039611816,1.734375,-0.40625,0.578125
1664889380924,0.039794922,-0.99835205,-0.057678223,1.421875,0.109375,0.140625
1664889380980,0.049072266,-0.99591064,-0.044006348,2.828125,0.109375,0.578125
1664889381001,0.047851562,-0.98638916,-0.0491333,0.75,-0.640625,-0.109375
1664889381060,0.053710938,-1.006897,-0.047180176,0.8125,0.25,-0.0625
1664889381080,0.044433594,-0.9915161,-0.047912598,1.140625,-0.4375,0.078125
1664889381136,0.04711914,-0.9915161,-0.042785645,0.640625,0.078125,0.0625
1664889381158,0.044433594,-0.9907837,-0.041809082,-0.296875,0.125,-0.125
1664889381206,0.05126953,-0.9920044,-0.06085205,-0.984375,-0.75,-0.171875
1664889381240,0.03881836,-0.99346924,-0.045715332,3.390625,0.390625,0.3125
1664889381293,0.056640625,-0.9758911,-0.0725708,-4.046875,-0.875,-0.84375
1664889381316,0.049072266,-1.0237427,-0.029846191,2.125,0.03125,-0.5
1664889381362,0.033447266,-0.97906494,-0.049865723,0.09375,-0.03125,-0.03125
1664889381397,0.053710938,-0.9915161,-0.053771973,-0.359375,0.5625,-0.59375
1664889381443,0.028076172,-0.9937134,-0.038635254,0.859375,0.125,-0.328125
1664889381475,0.056640625,-0.9859009,-0.04498291,0.453125,-0.828125,0.8125
1664889381519,0.046875,-0.9981079,-0.05621338,0.53125,0.078125,-0.15625
1664889381555,0.04272461,-0.9907837,-0.045959473,0.40625,0.234375,0.4375
1664889381600,0.045898438,-0.9976196,-0.042541504,0.484375,-0.328125,-0.109375
1664889381633,0.04272461,-0.9961548,-0.043029785,-0.4375,-0.234375,-0.109375
1664889381677,0.04711914,-0.9961548,-0.03643799,0.21875,0.140625,-0.09375
1664889381711,0.04248047,-0.9890747,-0.039123535,0.203125,0.0,0.28125
1664889381757,0.045898438,-0.9968872,-0.04425049,0.453125,0.78125,0.234375
1664889381813,0.041748047,-0.9990845,-0.06500244,-1.1875,0.375,0.265625
1664889381834,0.041503906,-0.986145,-0.016418457,2.640625,0.234375,0.03125
1664889381891,0.045410156,-1.0012817,-0.069885254,-1.625,0.1875,0.609375
1664889381914,0.050048828,-0.9932251,-0.043518066,-1.65625,0.09375,-1.0625
1664889381969,0.040283203,-1.0020142,-0.020568848,1.90625,0.359375,0.25
1664889381994,0.04248047,-1.0012817,-0.03765869,0.703125,0.46875,0.6875
1664889382037,0.044433594,-0.9859009,-0.046936035,0.015625,1.09375,0.359375
1664889382075,0.035888672,-1.0025024,-0.050354004,0.21875,1.484375,1.375
1664889382104,0.055419922,-0.9866333,-0.04034424,0.96875,1.09375,1.25
1664889382149,0.043945312,-0.9949341,-0.0413208,0.9375,1.015625,0.90625
1664889382183,0.045654297,-0.99468994,-0.04425049,1.671875,1.15625,0.875
1664889382228,0.056396484,-0.9937134,-0.043762207,0.75,0.359375,0.5625
1664889382262,0.05029297,-0.9920044,-0.038879395,0.28125,0.390625,0.28125
1664889382308,0.05053711,-1.0007935,-0.039367676,1.765625,0.890625,0.71875
1664889382340,0.050048828,-0.98638916,-0.045715332,0.515625,0.65625,0.671875
1664889382386,0.053222656,-0.99420166,-0.04034424,0.984375,0.640625,0.5625
1664889382421,0.063964844,-0.98028564,-0.047424316,-1.59375,-0.328125,0.0625
1664889382501,0.048583984,-1.0056763,-0.028381348,3.640625,0.671875,0.859375
1664889382507,0.05908203,-0.98638916,-0.062072754,-2.3125,-0.546875,-0.1875
1664889382555,0.05419922,-1.0039673,-0.026184082,-0.453125,0.296875,-0.3125
1664889382651,0.044921875,-1.005188,-0.03253174,1.1875,0.640625,0.34375
1664889382658,0.052978516,-0.9883423,-0.038146973,0.8125,0.71875,0.21875
1664889382663,0.04296875,-0.98394775,-0.039367676,0.46875,0.1875,0.109375
1664889382703,0.052734375,-1.0022583,-0.042541504,0.109375,-0.34375,0.234375
1664889382734,0.05908203,-0.99591064,-0.04498291,0.90625,0.1875,-0.078125
1664889382780,0.042236328,-0.9907837,-0.043273926,1.375,0.265625,-0.15625
1664889382814,0.059814453,-0.9944458,-0.04083252,1.046875,-0.515625,0.5625
1664889382859,0.05517578,-0.9915161,-0.039855957,0.921875,-0.796875,-0.78125
1664889382896,0.036621094,-1.0044556,-0.03692627,0.359375,-0.71875,-0.109375
1664889382939,0.05908203,-0.9854126,-0.034729004,1.171875,-0.59375,-0.046875
1664889382973,0.040039062,-0.99420166,-0.038879395,-0.5625,-0.21875,-0.671875
1664889383015,0.04663086,-1.0195923,-0.047912598,0.296875,-0.34375,0.265625
1664889383049,0.068115234,-0.96417236,-0.01373291,2.53125,-0.1875,-0.53125
1664889383097,0.033691406,-1.0149536,-0.054260254,1.828125,0.390625,0.828125
1664889383130,0.0637207,-0.9793091,-0.06329346,-1.984375,-0.078125,-1.078125
1664889383172,0.04248047,-1.00177,-0.027160645,1.65625,-0.578125,-0.515625
1664889383207,0.04248047,-0.9981079,-0.04473877,0.28125,-0.71875,-0.046875
1664889383263,0.052490234,-0.9846802,-0.046691895,2.0625,-0.3125,-0.484375
1664889383319,0.042236328,-1.0049438,-0.049621582,2.859375,-0.078125,0.703125
1664889383333,0.061523438,-0.98321533,-0.04522705,1.421875,-1.328125,0.28125
1664889383388,0.04248047,-0.9898071,-0.05206299,0.875,0.078125,-0.234375
1664889383411,0.041503906,-1.0010376,-0.044006348,0.125,0.203125,0.375
1664889383457,0.053222656,-0.98931885,-0.038146973,0.265625,0.109375,-0.28125
1664889383489,0.037353516,-1.0100708,-0.054504395,-0.125,-0.4375,0.0
1664889383534,0.044921875,-0.98687744,-0.045715332,0.78125,-0.640625,-0.140625
1664889383569,0.052001953,-0.9961548,-0.043518066,0.5,-0.15625,0.109375
1664889383614,0.041015625,-0.991272,-0.040100098,-0.375,0.0,0.046875
1664889383649,0.06323242,-0.97613525,-0.05328369,-1.859375,-1.546875,-0.421875
1664889383690,0.044921875,-1.003479,-0.031555176,3.921875,-0.921875,0.328125
1664889383726,0.05810547,-0.9812622,-0.04888916,-3.734375,-1.15625,-1.046875
1664889383770,0.04711914,-1.008606,-0.023498535,1.46875,-0.703125,-0.046875
1664889383806,0.044189453,-0.9873657,-0.04425049,0.53125,-0.65625,0.359375
1664889383848,0.05053711,-0.9812622,-0.05255127,-1.09375,-0.0625,-0.609375
1664889383882,0.03515625,-1.0029907,-0.031555176,0.984375,0.296875,-0.1875
1664889383950,0.047607422,-0.9927368,-0.039855957,-0.0625,-1.046875,0.125
1664889383961,0.047851562,-0.99005127,-0.03717041,1.015625,-0.109375,-0.4375
1664889384017,0.040283203,-0.9927368,-0.0491333,1.078125,-0.296875,0.171875
1664889384040,0.056396484,-0.99176025,-0.040100098,0.984375,-0.1875,-0.171875
1664889384097,0.041503906,-0.99468994,-0.04498291,0.421875,-0.421875,-0.0625
1664889384121,0.052978516,-0.99957275,-0.04107666,-0.046875,-0.28125,-0.046875
1664889384167,0.049072266,-0.9890747,-0.034973145,0.5,0.078125,-0.234375
1664889384196,0.041503906,-0.99664307,-0.03253174,-0.28125,-0.21875,0.03125
1664889384243,0.053222656,-0.9834595,-0.04815674,-2.34375,-0.9375,-0.578125
1664889384276,0.024902344,-1.0032349,-0.031555176,3.171875,0.609375,0.390625
1664889384323,0.060546875,-0.97540283,-0.050354004,-3.90625,-0.859375,-0.609375
1664889384355,0.03857422,-1.0105591,-0.0256958,0.140625,-0.5625,-0.5625
1664889384400,0.03881836,-0.9998169,-0.030334473,0.421875,-0.3125,0.609375
1664889384435,0.057128906,-0.98638916,-0.016418457,-0.9375,0.234375,-0.484375
1664889384480,0.02319336,-0.9963989,-0.018859863,-0.3125,0.40625,-0.328125
1664889384512,0.047851562,-0.99176025,-0.03302002,-0.796875,-0.90625,0.71875
1664889384568,0.040283203,-0.99176025,-0.027893066,-0.359375,-0.21875,-0.671875
1664889384590,0.041259766,-1.0003052,-0.023742676,0.484375,0.1875,0.203125
1664889384636,0.048095703,-0.9885864,-0.024963379,0.21875,-0.625,-0.03125
1664889384696,0.036621094,-1.0027466,-0.02960205,-0.578125,-0.21875,-0.5
1664889384716,0.038085938,-0.9968872,-0.022277832,0.078125,-0.125,-0.09375
1664889384773,0.036621094,-0.9981079,-0.0134887695,0.625,-0.125,0.109375
1664889384795,0.034423828,-1.0003052,-0.020080566,0.265625,-0.015625,0.203125
1664889384837,0.052734375,-0.99542236,-0.04547119,-2.28125,-0.15625,-0.34375
1664889384871,0.030517578,-0.9993286,0.0028686523,3.96875,0.125,-0.125
1664889384906,0.04345703,-0.9885864,-0.043029785,-1.5625,-0.5625,0.515625
1664889384952,0.039794922,-0.9968872,-0.018859863,-1.71875,-0.15625,-1.15625
1664889384986,0.028564453,-0.99884033,-0.0056762695,2.796875,0.03125,0.328125
1664889385030,0.037597656,-0.989563,-0.022521973,0.390625,0.5625,0.078125
1664889385063,0.041259766,-0.9932251,-0.0154418945,1.1875,0.453125,0.1875
1664889385108,0.03466797,-1.0039673,-0.018615723,1.0625,0.21875,0.5625
1664889385143,0.04321289,-0.9939575,-0.02935791,1.296875,0.078125,0.171875
1664889385187,0.045898438,-0.99420166,-0.017150879,2.046875,0.859375,0.78125
1664889385268,0.037109375,-0.9927368,-0.023010254,1.734375,0.1875,0.453125
1664889385272,0.048583984,-0.9963989,-0.0256958,1.40625,0.0625,0.4375
1664889385300,0.047851562,-0.99346924,-0.024963379,1.6875,0.515625,0.125
1664889385347,0.030273438,-0.9920044,-0.030334473,1.625,0.4375,0.390625
1664889385379,0.044189453,-0.9949341,-0.02545166,1.515625,0.359375,0.65625
1664889385435,0.05444336,-0.98638916,-0.0569458,1.140625,0.734375,0.3125
1664889385456,0.02734375,-1.0020142,-0.012023926,5.59375,0.125,0.71875
1664889385514,0.051757812,-0.99053955,-0.058898926,1.078125,-0.296875,1.234375
1664889385536,0.05053711,-0.9807739,-0.042785645,-0.21875,-0.140625,-0.8125
1664889385581,0.041748047,-1.0137329,-0.027893066,2.28125,0.453125,0.8125
1664889385618,0.049316406,-0.98565674,-0.038879395,1.6875,0.75,0.015625
1664889385661,0.041748047,-0.989563,-0.047180176,0.921875,0.59375,0.59375
1664889385694,0.052734375,-0.9973755,-0.047180176,1.421875,0.25,0.453125
1664889385738,0.055664062,-0.99420166,-0.042785645,1.640625,0.203125,0.609375
1664889385776,0.03955078,-0.99224854,-0.050842285,2.625,0.453125,0.765625
1664889385829,0.052734375,-0.9951782,-0.0491333,2.21875,-0.28125,1.03125
1664889385850,0.05029297,-0.99053955,-0.049865723,1.3125,0.140625,0.171875
1664889385895,0.049316406,-0.9956665,-0.046936035,0.546875,0.265625,0.03125
1664889385941,0.044189453,-0.9907837,-0.04473877,0.421875,-0.03125,0.140625
1664889385973,0.040527344,-0.99420166,-0.054992676,-0.453125,-0.65625,-0.171875
1664889386019,0.061035156,-1.0012817,-0.07989502,-1.46875,0.3125,0.03125
1664889386057,0.045654297,-0.99346924,-0.036193848,3.40625,-0.15625,-0.0625
1664889386121,0.059570312,-0.9976196,-0.070617676,-0.1875,-0.6875,0.53125
1664889386134,0.04345703,-0.98931885,-0.047912598,0.109375,-0.328125,-1.0
1664889386189,0.0390625,-1.0098267,-0.035949707,1.890625,-0.1875,0.0625
1664889386217,0.044921875,-0.9834595,-0.04547119,1.125,-0.375,0.03125
1664889386267,0.048339844,-0.9907837,-0.054260254,1.546875,-0.21875,0.140625
1664889386290,0.04272461,-1.0020142,-0.058410645,1.171875,-0.515625,0.25
1664889386335,0.047851562,-0.9849243,-0.05279541,1.1875,-0.46875,-0.5625
1664889386367,0.045166016,-0.99224854,-0.054992676,0.78125,0.03125,0.109375
1664889386413,0.056152344,-0.991272,-0.058166504,1.484375,-0.203125,0.0625
1664889386450,0.046875,-0.9963989,-0.06451416,0.578125,-0.390625,0.03125
1664889386492,0.056640625,-0.9920044,-0.055236816,0.328125,-0.234375,-0.09375
1664889386525,0.05078125,-0.99176025,-0.06378174,0.34375,0.21875,-0.03125
1664889386570,0.04272461,-0.9920044,-0.058410645,-0.265625,-0.53125,-0.078125
1664889386604,0.05517578,-1.0044556,-0.08013916,-1.09375,-0.046875,0.0625
1664889386649,0.037109375,-0.9902954,-0.034729004,2.484375,-0.125,0.0
1664889386683,0.05419922,-0.986145,-0.08062744,-2.453125,-1.234375,0.28125
1664889386730,0.048095703,-1.0020142,-0.047668457,-2.359375,0.140625,-1.3125
1664889386766,0.034179688,-0.99835205,-0.031555176,1.28125,-0.78125,0.328125
1664889386812,0.060302734,-0.97857666,-0.047668457,-1.453125,-1.0,-0.515625
1664889386863,0.03881836,-0.9968872,-0.036193848,-0.609375,0.09375,-0.6875
1664889386885,0.045166016,-0.99346924,-0.054504395,0.65625,0.0,0.765625
1664889386945,0.04248047,-0.9944458,-0.050354004,0.984375,0.125,0.140625
1664889386967,0.042236328,-0.9920044,-0.04815674,0.453125,-0.296875,0.34375
1664889387011,0.049072266,-0.9920044,-0.04473877,1.0,-0.484375,0.375
1664889387042,0.04711914,-0.9915161,-0.04522705,0.75,-0.234375,0.03125
1664889387100,0.043945312,-0.9951782,-0.046936035,-0.421875,-1.421875,-0.171875
1664889387125,0.040039062,-0.9859009,-0.046936035,-1.5,-1.828125,-0.703125
1664889387157,0.04345703,-0.99005127,-0.043518066,-0.375,0.546875,-0.359375
1664889387202,0.05834961,-0.97662354,-0.054260254,-1.984375,-0.5,-0.140625
1664889387238,0.034179688,-1.0015259,-0.035461426,2.90625,0.203125,0.5
1664889387290,0.05810547,-0.9751587,-0.05596924,-3.671875,-0.34375,-0.765625
1664889387313,0.041259766,-1.0117798,-0.033996582,0.203125,-0.34375,-0.390625
1664889387359,0.036132812,-0.98394775,-0.02911377,1.125,-0.046875,-0.078125
1664889387395,0.047851562,-0.987854,-0.04083252,-0.859375,0.421875,-0.390625
1664889387436,0.035888672,-0.99957275,-0.018615723,1.625,0.4375,-0.21875
1664889387470,0.039794922,-0.991272,-0.027404785,-0.078125,-0.390625,0.609375
1664889387514,0.045654297,-1.0003052,-0.039123535,0.59375,-0.296875,0.15625
1664889387548,0.041748047,-0.99176025,-0.040100098,1.125,0.3125,0.296875
1664889387595,0.04711914,-0.9951782,-0.03692627,0.171875,-0.25,-0.015625
1664889387631,0.045898438,-0.9951782,-0.038635254,0.4375,-0.046875,0.0625
1664889387684,0.044921875,-0.99346924,-0.03253174,-0.25,0.1875,-0.28125
1664889387720,0.041503906,-0.99346924,-0.03643799,0.140625,0.265625,-0.125
1664889387761,0.039794922,-0.9981079,-0.02911377,1.046875,0.8125,0.390625
1664889387785,0.05126953,-0.97491455,-0.007385254,-0.671875,0.0625,-0.578125
1664889387831,0.024169922,-1.0154419,-0.04498291,3.0625,-0.03125,1.3125
1664889387867,0.059570312,-0.9768677,-0.038146973,-3.046875,-0.0625,-0.984375
1664889387911,0.0390625,-1.005188,-0.020080566,0.71875,0.28125,-0.40625
1664889387945,0.04296875,-0.9998169,-0.03302002,1.609375,0.1875,0.625
1664889387987,0.045654297,-0.97735596,-0.035949707,0.4375,1.109375,-0.15625
1664889388022,0.028564453,-1.0054321,-0.03375244,0.96875,1.203125,0.515625
1664889388067,0.055419922,-0.9841919,-0.028381348,1.28125,0.046875,0.625
1664889388100,0.045654297,-0.99835205,-0.039855957,0.078125,0.265625,0.21875
1664889388146,0.044921875,-0.9973755,-0.02911377,2.15625,1.15625,0.46875
1664889388183,0.045166016,-0.98931885,-0.03717041,0.828125,0.109375,0.296875
1664889388223,0.040283203,-1.0093384,-0.030822754,0.5625,0.34375,0.25
1664889388257,0.045898438,-0.98687744,-0.027404785,1.5,0.375,0.09375
1664889388316,0.04345703,-0.9998169,-0.034484863,0.21875,0.21875,0.53125
1664889388339,0.056640625,-1.0095825,-0.04937744,-0.390625,0.609375,0.359375
1664889388393,0.040771484,-0.9841919,-0.014709473,1.65625,0.203125,-0.375
1664889388415,0.04345703,-1.0076294,-0.042053223,0.375,0.28125,1.078125
1664889388472,0.04711914,-0.9776001,-0.039855957,-1.796875,-0.5,-1.09375
1664889388495,0.036621094,-1.0154419,-0.020080566,1.5,0.5,0.578125
1664889388543,0.04638672,-0.99346924,-0.030578613,1.234375,0.53125,-0.09375
1664889388584,0.03930664,-0.989563,-0.045715332,1.203125,0.546875,0.546875
1664889388619,0.039794922,-1.003479,-0.042297363,1.984375,0.234375,0.421875
1664889388662,0.044921875,-0.9871216,-0.034729004,1.25,0.234375,0.515625
1664889388698,0.044189453,-0.98687744,-0.030090332,1.34375,0.203125,0.328125
1664889388743,0.040527344,-0.9956665,-0.042297363,0.6875,-0.15625,0.21875
1664889388779,0.04272461,-0.987854,-0.031799316,0.046875,-0.40625,-0.390625
1664889388854,0.038330078,-0.99786377,-0.035461426,0.203125,-0.1875,-0.296875
1664889388859,0.03881836,-0.99713135,-0.034240723,1.109375,0.3125,0.296875
1664889388899,0.040771484,-0.989563,-0.031066895,1.53125,0.453125,0.515625
1664889388933,0.051513672,-0.9949341,-0.054504395,-1.140625,0.25,0.28125
1664889388977,0.045898438,-0.9963989,-0.0134887695,4.09375,0.1875,0.234375
1664889389038,0.047607422,-0.99884033,-0.05718994,-0.421875,0.203125,0.71875
1664889389059,0.04345703,-0.987854,-0.031066895,-0.046875,0.109375,-0.703125
1664889389114,0.040039062,-1.0056763,-0.034484863,2.109375,-0.109375,0.453125
1664889389135,0.047607422,-0.98321533,-0.051574707,0.265625,0.828125,0.15625
1664889389182,0.041992188,-0.9924927,-0.03765869,0.8125,2.484375,0.265625
1664889389217,0.044921875,-1.0064087,-0.04034424,3.015625,1.34375,1.234375
1664889389247,0.052978516,-0.9717407,-0.05596924,1.703125,0.015625,0.390625
1664889389293,0.059570312,-0.99591064,-0.040100098,1.515625,0.765625,0.078125
1664889389328,0.043945312,-0.9968872,-0.049865723,2.171875,-0.328125,0.25
1664889389372,0.049560547,-0.9939575,-0.053771973,1.78125,-0.3125,-0.140625
1664889389407,0.05029297,-0.9937134,-0.03741455,1.671875,0.0,-0.375
1664889389452,0.044921875,-0.9898071,-0.05303955,0.796875,-0.328125,0.53125
1664889389487,0.047851562,-0.9849243,-0.042785645,1.390625,-0.375,-0.046875
1664889389529,0.060791016,-0.9883423,-0.066467285,-1.96875,-0.75,-0.515625
1664889389563,0.034423828,-1.0078735,-0.04034424,3.171875,-0.625,0.34375
1664889389610,0.06982422,-0.975647,-0.065979004,-5.078125,-0.890625,-0.8125
1664889389664,0.043945312,-1.0076294,-0.04034424,0.03125,-0.5625,-0.640625
1664889389686,0.044921875,-0.98516846,-0.043518066,1.359375,-0.953125,0.140625
1664889389743,0.040527344,-0.9841919,-0.057434082,-1.203125,-0.140625,-0.328125
1664889389766,0.04248047,-1.0054321,-0.03253174,0.703125,-0.203125,-0.015625
1664889389823,0.045166016,-0.9890747,-0.0413208,-0.390625,-1.40625,0.296875
1664889389853,0.04296875,-0.9885864,-0.059387207,-1.046875,-1.734375,-0.53125
1664889389902,0.06274414,-0.9990845,-0.039855957,2.421875,-0.359375,0.0625
1664889389922,0.044433594,-0.98443604,-0.050598145,0.59375,-0.734375,-0.296875
1664889389957,0.052978516,-1.00177,-0.042297363,-0.265625,-0.6875,-0.328125
1664889390002,0.034423828,-1.0015259,-0.038635254,0.28125,0.125,-0.109375
1664889390036,0.045410156,-0.99786377,-0.04815674,0.3125,-0.390625,0.328125
1664889390080,0.04321289,-1.0046997,-0.046447754,0.078125,0.21875,-0.171875
1664889390114,0.046875,-0.97662354,-0.020568848,0.28125,0.171875,-0.78125
1664889390161,0.040527344,-1.0095825,-0.054748535,1.40625,-0.34375,0.8125
1664889390194,0.053466797,-0.97784424,-0.044006348,-3.03125,-0.53125,-1.75
1664889390241,0.044189453,-1.0081177,-0.028625488,0.859375,-0.65625,0.296875
1664889390279,0.052978516,-0.9817505,-0.039123535,-0.828125,-0.953125,-0.53125
1664889390319,0.036376953,-0.9956665,-0.038635254,-0.890625,0.609375,-0.453125
1664889390352,0.02734375,-1.0090942,-0.03668213,1.765625,-0.328125,0.640625
1664889390395,0.052978516,-0.98101807,-0.01739502,0.875,-0.53125,0.1875
1664889390430,0.04345703,-0.99420166,-0.039855957,0.09375,0.28125,0.015625
1664889390474,0.03955078,-0.99591064,-0.038879395,1.0,0.015625,0.3125
1664889390531,0.044677734,-0.99176025,-0.028381348,1.109375,0.3125,0.09375
1664889390555,0.0390625,-0.9961548,-0.034973145,0.46875,0.296875,0.140625
1664889390609,0.039794922,-0.98931885,-0.02520752,1.390625,0.1875,0.40625
1664889390631,0.044921875,-0.99468994,-0.038391113,0.015625,0.609375,0.390625
1664889390665,0.032714844,-1.0122681,-0.05303955,0.140625,0.703125,0.46875
1664889390713,0.05102539,-0.9807739,-0.014465332,2.078125,0.140625,-0.375
1664889390746,0.032470703,-1.0071411,-0.053771973,0.75,0.0625,1.34375
1664889390794,0.053466797,-0.973938,-0.037902832,-2.1875,-0.03125,-1.09375
1664889390824,0.034179688,-1.0120239,-0.015930176,1.40625,0.59375,0.28125
1664889390869,0.045166016,-0.99005127,-0.03643799,1.203125,0.3125,0.609375
1664889390905,0.045654297,-0.98687744,-0.038146973,0.59375,0.546875,0.15625
1664889390964,0.032958984,-1.0083618,-0.035217285,1.296875,0.734375,0.671875
1664889390980,0.05126953,-0.97662354,-0.034973145,1.1875,-0.28125,0.34375
1664889391026,0.040039062,-0.98638916,-0.0413208,1.125,0.515625,0.484375
1664889391062,0.045166016,-1.0049438,-0.04083252,1.9375,0.5,0.75
1664889391104,0.05053711,-0.98565674,-0.038391113,1.25,0.0625,0.25
1664889391137,0.044433594,-0.99786377,-0.04156494,1.125,0.65625,0.3125
1664889391208,0.045898438,-0.99224854,-0.04522705,1.515625,0.15625,0.46875
1664889391230,0.04736328,-0.9890747,-0.043762207,0.71875,0.5,0.390625
1664889391285,0.037597656,-1.0027466,-0.045959473,1.0,0.828125,0.15625
1664889391341,0.041992188,-0.9714966,-0.023498535,0.734375,-0.40625,-0.3125
1664889391347,0.043701172,-1.0127563,-0.046447754,2.0,0.25,0.859375
1664889391385,0.045410156,-0.9763794,-0.06695557,-3.5625,-1.4375,-1.3125
1664889391419,0.04711914,-1.0015259,-0.019104004,-0.0625,-0.203125,-0.5625
1664889391465,0.05029297,-0.99005127,-0.034729004,0.453125,-0.15625,-0.078125
1664889391498,0.03540039,-0.987854,-0.050598145,0.390625,-0.46875,0.15625
1664889391543,0.049560547,-0.9993286,-0.02960205,1.53125,-0.140625,0.328125
1664889391577,0.050048828,-0.9981079,-0.032043457,1.015625,0.203125,0.46875
1664889391623,0.04296875,-0.99664307,-0.041809082,1.3125,-0.046875,0.03125
1664889391655,0.044921875,-0.99346924,-0.039611816,2.125,0.125,0.15625
1664889391701,0.04296875,-0.9968872,-0.04840088,0.578125,0.15625,0.5625
1664889391735,0.053466797,-0.99835205,-0.038391113,-0.5625,0.421875,-0.421875
1664889391779,0.039794922,-0.9898071,-0.03253174,-2.5,-0.390625,-0.46875
1664889391814,0.052734375,-0.987854,-0.042053223,1.21875,-1.734375,0.484375
1664889391864,0.045166016,-0.9985962,-0.03375244,1.75,1.03125,0.25
1664889391892,0.056884766,-0.9780884,-0.030822754,-1.3125,-0.40625,-0.671875
1664889391939,0.037353516,-1.0029907,-0.038146973,4.328125,-0.15625,1.046875
1664889391998,0.057617188,-0.98101807,-0.053527832,-3.328125,-1.0,-0.8125
1664889392015,0.03857422,-1.0112915,-0.022033691,1.03125,-0.59375,-0.828125
1664889392073,0.048828125,-0.9963989,-0.03302002,1.3125,-0.625,0.625
1664889392094,0.044677734,-0.9817505,-0.0413208,-0.265625,0.078125,0.03125
1664889392152,0.03955078,-1.0044556,-0.0256958,2.25,-0.71875,0.28125
1664889392174,0.048339844,-0.99224854,-0.034729004,1.25,-1.328125,0.640625
1664889392208,0.05029297,-0.9990845,-0.045959473,1.4375,-0.0625,0.078125
1664889392253,0.048583984,-0.99884033,-0.04107666,1.90625,-0.46875,0.203125
1664889392285,0.04638672,-0.9902954,-0.031066895,1.4375,-0.328125,-0.015625
1664889392332,0.050048828,-0.99224854,-0.046203613,0.34375,-0.03125,0.015625
1664889392366,0.048339844,-0.9939575,-0.04864502,0.671875,-0.671875,0.125
1664889392410,0.052001953,-0.987854,-0.039611816,0.59375,-0.53125,0.0625
1664889392444,0.04736328,-0.9829712,-0.050598145,-1.265625,-0.515625,-0.609375
1664889392489,0.059326172,-0.98638916,-0.051818848,-0.796875,-0.03125,-0.046875
1664889392525,0.028808594,-1.0049438,-0.028869629,3.28125,0.546875,-0.078125
1664889392566,0.059814453,-0.9780884,-0.0647583,-3.96875,-0.859375,-0.34375
1664889392600,0.041503906,-1.0169067,-0.032287598,0.015625,-0.03125,-0.984375
1664889392651,0.036865234,-0.99005127,-0.03326416,0.921875,-0.125,0.5625
1664889392703,0.0546875,-0.98443604,-0.030090332,-0.828125,0.296875,-0.640625
1664889392725,0.03149414,-0.9993286,-0.028381348,0.4375,0.484375,-0.140625
1664889392783,0.052490234,-0.99298096,-0.035949707,0.375,-0.828125,0.71875
1664889392805,0.047607422,-0.98809814,-0.041809082,0.03125,-0.109375,-0.4375
1664889392860,0.040283203,-0.9961548,-0.041809082,0.765625,0.78125,0.328125
1664889392892,0.048583984,-0.989563,-0.034240723,0.796875,-0.28125,-0.015625
1664889392915,0.040039062,-0.9939575,-0.035461426,0.15625,0.265625,-0.1875
1664889392960,0.045898438,-1.0010376,-0.034973145,0.515625,0.09375,0.015625
1664889393003,0.045410156,-0.98760986,-0.031066895,0.96875,0.171875,0.21875
1664889393040,0.04272461,-0.99713135,-0.034729004,0.09375,0.234375,0.0625
1664889393081,0.048095703,-1.0100708,-0.054260254,-0.0625,0.984375,0.421875
1664889393118,0.040527344,-0.97735596,-0.0064086914,1.46875,0.1875,-0.65625
1664889393155,0.0390625,-1.0015259,-0.05303955,0.671875,-0.015625,0.78125
1664889393208,0.045166016,-0.9829712,-0.046203613,-2.9375,0.078125,-1.109375
1664889393230,0.03881836,-1.0007935,-0.007385254,1.40625,0.375,-0.078125
1664889393276,0.03930664,-0.99542236,-0.021057129,0.609375,0.4375,0.40625
1664889393310,0.048095703,-0.98443604,-0.03741455,0.484375,0.46875,0.109375
1664889393359,0.043701172,-1.0037231,-0.0413208,1.3125,0.515625,0.453125
1664889393392,0.04711914,-0.9927368,-0.026428223,1.25,-0.21875,0.375
1664889393437,0.041259766,-0.9937134,-0.03717041,1.21875,0.28125,0.03125
1664889393489,0.04248047,-1.003479,-0.03741455,1.375,0.6875,0.84375
1664889393513,0.048828125,-0.9924927,-0.0413208,1.0,-0.171875,0.25
1664889393569,0.041992188,-0.9963989,-0.033996582,1.390625,0.5,0.046875
1664889393592,0.03955078,-0.9920044,-0.03643799,1.453125,0.53125,0.578125
1664889393647,0.047851562,-0.9963989,-0.042053223,1.875,0.296875,0.46875
1664889393669,0.043945312,-0.9927368,-0.03302002,1.890625,0.59375,0.890625
1664889393703,0.052246094,-0.9805298,-0.041809082,-0.890625,-0.109375,0.453125
1664889393748,0.040527344,-1.0056763,-0.03326416,3.03125,0.828125,1.28125
1664889393796,0.053222656,-0.97857666,-0.05987549,-2.40625,0.421875,0.046875
1664889393830,0.057617188,-0.99884033,-0.028137207,0.390625,0.34375,-0.1875
1664889393872,0.047607422,-0.9976196,-0.02960205,1.34375,0.28125,0.6875
1664889393907,0.042236328,-0.98809814,-0.03692627,0.796875,0.859375,-0.03125
1664889393954,0.041748047,-0.9937134,-0.036193848,0.46875,0.21875,0.53125
1664889393985,0.051757812,-1.0037231,-0.035461426,0.28125,-0.453125,0.25
1664889394032,0.04736328,-0.99468994,-0.041809082,-0.546875,-0.59375,-0.203125
1664889394063,0.049560547,-1.0005493,-0.032287598,0.859375,-0.34375,-0.046875
1664889394107,0.052001953,-0.9927368,-0.038391113,0.984375,-0.171875,-0.078125
1664889394144,0.046875,-1.0012817,-0.03668213,0.296875,-0.125,0.078125
1664889394197,0.052001953,-0.98931885,-0.032287598,0.875,-0.0625,-0.3125
1664889394220,0.04711914,-0.99664307,-0.037902832,-0.265625,-0.25,0.21875
1664889394278,0.052978516,-0.9927368,-0.027404785,0.265625,0.3125,0.03125
1664889394302,0.043945312,-1.003479,-0.06573486,-1.5,0.078125,-0.09375
1664889394356,0.037841797,-0.99224854,-0.008361816,2.484375,0.015625,-0.46875
1664889394378,0.041259766,-0.99664307,-0.066711426,1.53125,-0.5,1.234375
1664889394425,0.052001953,-0.98687744,-0.049865723,0.65625,1.4375,0.03125
1664889394458,0.05029297,-1.0066528,-0.030334473,5.8125,1.21875,2.03125
1664889394503,0.050048828,-0.97662354,-0.049865723,3.359375,0.125,1.078125
1664889394537,0.05517578,-0.9819946,-0.053527832,2.0,0.390625,0.5
1664889394583,0.05493164,-1.0142212,-0.05718994,3.078125,0.390625,0.96875
1664889394627,0.05810547,-0.9829712,-0.054260254,2.109375,-0.390625,0.59375
1664889394660,0.05859375,-0.9902954,-0.046447754,2.734375,0.625,0.734375
1664889394692,0.055908203,-0.9898071,-0.059387207,1.734375,-0.4375,1.3125
1664889394737,0.05419922,-0.98321533,-0.061584473,2.0625,0.375,0.671875
1664889394796,0.06323242,-0.99542236,-0.06451416,2.0625,0.6875,1.125
1664889394816,0.06298828,-0.9885864,-0.06744385,2.75,-0.1875,0.828125
1664889394853,0.0625,-0.9859009,-0.06890869,1.875,0.15625,0.390625
1664889394906,0.059814453,-1.0049438,-0.07696533,1.125,-0.046875,0.53125
1664889394929,0.059570312,-0.9807739,-0.050598145,1.921875,0.046875,-0.40625
1664889394986,0.064208984,-0.99835205,-0.09893799,0.28125,-1.25,0.765625
1664889395008,0.06591797,-0.9915161,-0.07550049,-2.515625,-1.03125,-1.546875
1664889395075,0.06347656,-0.99420166,-0.05255127,1.90625,-0.796875,0.234375
1664889395087,0.06323242,-0.9685669,-0.07672119,0.296875,-0.109375,0.125
1664889395132,0.06298828,-0.9920044,-0.07989502,-0.625,-0.25,-0.296875
1664889395166,0.06298828,-0.99713135,-0.06817627,0.671875,-0.34375,0.28125
1664889395211,0.068115234,-0.9883423,-0.069885254,-0.171875,-0.015625,-0.65625
1664889395244,0.060302734,-0.99298096,-0.06085205,-0.328125,-0.296875,-0.40625
1664889395289,0.06298828,-0.98883057,-0.06964111,-1.265625,-0.421875,-0.328125
1664889395326,0.06201172,-0.98931885,-0.06915283,-0.78125,0.03125,-0.828125
1664889395368,0.049804688,-0.98443604,-0.06036377,-0.734375,0.0,-0.875
1664889395402,0.05078125,-0.98809814,-0.059143066,-0.90625,-0.5,-0.1875
1664889395447,0.064941406,-0.99102783,-0.055725098,-1.09375,-0.328125,-0.796875
1664889395480,0.053222656,-1.0025024,-0.07989502,-3.109375,-0.15625,-0.328125
1664889395525,0.05834961,-0.98883057,-0.033996582,1.796875,0.171875,-0.671875
1664889395583,0.056396484,-0.99591064,-0.06793213,-2.015625,-0.421875,-0.171875
1664889395605,0.046142578,-0.99884033,-0.05279541,-2.9375,-0.078125,-1.671875
1664889395644,0.04248047,-0.9932251,-0.030334473,0.125,-0.171875,-0.03125
1664889395694,0.053710938,-0.9924927,-0.042785645,-0.046875,0.078125,-0.578125
1664889395763,0.047851562,-0.9956665,-0.043273926,-0.5625,0.625,-0.4375
1664889395771,0.04296875,-0.9985962,-0.041809082,0.640625,0.0,0.0625
1664889395794,0.048828125,-0.9949341,-0.046447754,0.078125,0.125,0.1875
1664889395841,0.048583984,-0.9932251,-0.04034424,0.734375,0.296875,0.234375
1664889395876,0.044433594,-0.9949341,-0.042053223,1.265625,0.609375,0.1875
1664889395924,0.047851562,-0.9951782,-0.04083252,0.078125,0.140625,0.0625
1664889395965,0.049072266,-0.9968872,-0.038879395,1.125,0.328125,-0.265625
1664889395997,0.040527344,-0.9902954,-0.03692627,1.40625,0.59375,0.453125
1664889396033,0.052978516,-0.98809814,-0.04498291,0.609375,0.28125,0.03125
1664889396090,0.055908203,-0.99664307,-0.061340332,-1.390625,0.5625,0.0625
1664889396114,0.045166016,-0.9951782,-0.02154541,4.125,0.109375,-0.03125
1664889396153,0.055419922,-0.99786377,-0.066711426,-0.59375,-0.171875,0.546875
1664889396190,0.056152344,-0.98443604,-0.038146973,-0.6875,-0.390625,-0.90625
1664889396244,0.045410156,-1.0042114,-0.032287598,2.203125,0.609375,0.3125
1664889396275,0.049316406,-0.99884033,-0.04888916,0.984375,0.359375,0.265625
1664889396314,0.049316406,-0.9819946,-0.04058838,0.6875,0.203125,0.203125
1664889396370,0.040771484,-1.0046997,-0.047424316,1.078125,0.234375,0.546875
1664889396392,0.052490234,-0.99468994,-0.046936035,0.59375,0.140625,0.53125
1664889396450,0.043945312,-0.9898071,-0.0413208,1.453125,0.8125,0.0
1664889396472,0.04638672,-0.99835205,-0.049621582,1.25,0.328125,0.625
1664889396515,0.057373047,-0.98443604,-0.043762207,1.109375,-0.078125,0.21875
1664889396561,0.0390625,-0.9985962,-0.05328369,-0.078125,0.0,0.046875
1664889396596,0.05517578,-0.9915161,-0.04864502,0.328125,-0.109375,0.015625
1664889396628,0.055664062,-0.97857666,-0.04156494,-0.890625,-0.6875,-0.53125
1664889396711,0.057128906,-1.0081177,-0.06036377,-2.359375,-0.484375,-0.828125
1664889396715,0.04321289,-0.99053955,-0.019592285,2.78125,-1.1875,-0.3125
1664889396751,0.044433594,-0.99835205,-0.06378174,-1.1875,-0.75,0.53125
1664889396787,0.051513672,-0.987854,-0.034484863,-0.71875,-0.15625,-1.421875
1664889396831,0.028808594,-1.0061646,-0.028869629,1.890625,-0.203125,0.6875
1664889396867,0.048095703,-0.98321533,-0.042541504,0.90625,-0.140625,0.140625
1664889396912,0.041992188,-0.9871216,-0.04083252,1.234375,0.109375,0.171875
1664889396943,0.051757812,-1.0093384,-0.051330566,1.125,-0.46875,0.546875
1664889396988,0.044677734,-0.9837036,-0.049621582,-0.015625,-0.625,-0.5
1664889397024,0.052246094,-0.9859009,-0.044006348,1.296875,-1.15625,0.09375
1664889397068,0.052246094,-0.9866333,-0.05596924,1.734375,-1.0625,0.015625
1664889397101,0.056640625,-0.9920044,-0.04547119,0.453125,-0.03125,0.15625
1664889397157,0.052490234,-0.9944458,-0.04473877,0.90625,0.15625,-0.453125
1664889397180,0.03564453,-0.99542236,-0.04425049,0.65625,-0.5625,0.40625
1664889397235,0.055419922,-0.99468994,-0.050354004,0.59375,-0.734375,0.390625
1664889397258,0.045898438,-1.0064087,-0.06768799,-0.015625,0.609375,0.4375
1664889397304,0.033447266,-0.9937134,-0.028381348,1.890625,0.171875,-0.59375
1664889397359,0.052490234,-1.0005493,-0.074523926,1.25,-1.046875,1.21875
1664889397385,0.051757812,-0.98687744,-0.053771973,-2.96875,-0.484375,-1.703125
1664889397416,0.048339844,-1.0105591,-0.019348145,1.515625,-0.875,0.515625
1664889397461,0.052001953,-0.9800415,-0.050354004,-0.296875,0.109375,-0.1875
1664889397495,0.038330078,-0.98931885,-0.055480957,-1.171875,0.453125,0.03125
1664889397539,0.05126953,-1.0054321,-0.038146973,1.25,-0.421875,0.359375
1664889397573,0.049560547,-0.9902954,-0.040100098,-0.5625,-0.359375,-0.046875
1664889397617,0.049316406,-0.98883057,-0.042297363,0.71875,0.1875,0.3125
1664889397652,0.04638672,-0.9981079,-0.043273926,0.703125,-0.671875,0.09375
1664889397698,0.055664062,-0.98760986,-0.049865723,0.734375,-0.609375,0.1875
1664889397732,0.046875,-0.99224854,-0.04425049,0.78125,0.21875,-0.28125
1664889397789,0.047607422,-0.99176025,-0.039855957,0.515625,-0.359375,-0.140625
1664889397809,0.056884766,-0.9841919,-0.047424316,0.28125,-0.234375,-0.1875
1664889397871,0.037353516,-1.0127563,-0.059387207,-0.59375,0.421875,0.015625
1664889397888,0.045898438,-0.9824829,-0.013000488,1.453125,0.0,-0.671875
1664889397948,0.049072266,-0.9993286,-0.06451416,0.59375,-0.171875,0.640625
1664889397969,0.04663086,-0.9898071,-0.043518066,-2.28125,0.125,-1.609375
1664889398012,0.029541016,-0.9961548,-0.022766113,1.609375,-0.40625,0.421875
1664889398047,0.047607422,-0.989563,-0.039855957,-0.296875,-0.234375,-0.015625
1664889398090,0.045410156,-0.9924927,-0.043029785,-0.9375,-0.203125,-0.484375
1664889398124,0.03540039,-1.010315,-0.031311035,0.65625,0.03125,0.234375
1664889398169,0.051513672,-0.98565674,-0.031066895,1.03125,-0.875,-0.078125
1664889398204,0.05029297,-0.9920044,-0.032043457,0.109375,-0.21875,-0.015625
1664889398249,0.045166016,-0.9998169,-0.03277588,0.8125,0.453125,0.1875
1664889398284,0.05126953,-0.9949341,-0.031555176,1.328125,0.046875,-0.03125
1664889398327,0.037109375,-0.9968872,-0.027404785,0.453125,0.640625,-0.015625
1664889398360,0.04638672,-0.991272,-0.038391113,0.671875,-0.328125,0.15625
1664889398408,0.04663086,-0.986145,-0.035705566,0.796875,0.484375,0.109375
1664889398438,0.03930664,-1.0064087,-0.038879395,1.078125,0.96875,-0.0625
1664889398485,0.057861328,-0.9649048,-0.02130127,0.078125,-0.203125,-0.546875
1664889398546,0.02758789,-1.0095825,-0.039367676,3.46875,0.265625,1.234375
1664889398567,0.060058594,-0.9763794,-0.051330566,-2.859375,-0.28125,-0.6875
1664889398619,0.049560547,-1.0032349,-0.023010254,0.765625,0.75,-0.421875
1664889398642,0.040283203,-1.0046997,-0.035461426,1.78125,0.203125,0.875
1664889398686,0.053466797,-0.98272705,-0.038391113,1.34375,0.6875,-0.09375
1664889398720,0.03466797,-1.0042114,-0.031555176,1.5625,1.078125,0.484375
1664889398755,0.053955078,-0.99224854,-0.034240723,1.40625,-0.109375,0.84375
1664889398801,0.043945312,-0.9920044,-0.043273926,0.359375,0.3125,-0.234375
1664889398834,0.046875,-0.99468994,-0.040100098,1.65625,0.890625,0.71875
1664889398879,0.052734375,-0.98931885,-0.040100098,1.234375,-0.125,0.421875
1664889398919,0.05078125,-0.99713135,-0.038391113,0.96875,0.625,0.125
1664889398957,0.04638672,-0.9920044,-0.043518066,1.0625,0.234375,0.3125
1664889398991,0.049560547,-0.99346924,-0.042053223,1.078125,-0.015625,0.09375
1664889399034,0.039794922,-0.99176025,-0.038391113,2.0625,0.390625,0.25
1664889399081,0.057861328,-0.98394775,-0.06060791,-1.3125,0.15625,0.015625
1664889399116,0.041992188,-1.0120239,-0.021057129,4.34375,0.34375,0.734375
1664889399160,0.053710938,-0.97979736,-0.06451416,-2.40625,-0.609375,0.359375
1664889399198,0.057373047,-0.9961548,-0.030578613,-0.734375,-0.234375,-0.9375
1664889399239,0.032958984,-1.0049438,-0.034484863,1.234375,0.375,0.359375
1664889399273,0.052490234,-0.9859009,-0.05230713,0.25,0.390625,-0.359375
1664889399339,0.040527344,-0.9963989,-0.04547119,1.5,0.15625,0.3125
1664889399352,0.042236328,-1.000061,-0.04840088,2.703125,0.015625,0.78125
1664889399396,0.053710938,-0.99835205,-0.051086426,1.109375,0.140625,0.109375
1664889399430,0.044189453,-0.99420166,-0.038879395,1.5,-0.109375,-0.046875
1664889399474,0.041748047,-0.9907837,-0.04547119,1.21875,-0.359375,0.59375
1664889399509,0.061035156,-0.9985962,-0.043518066,1.6875,0.390625,0.015625
1664889399554,0.048583984,-0.99884033,-0.05303955,1.484375,0.296875,0.171875
1664889399597,0.046875,-0.9907837,-0.046447754,0.90625,-0.140625,0.125
1664889399632,0.056640625,-0.9927368,-0.04937744,0.1875,0.0625,-0.046875
1664889399670,0.041259766,-1.008606,-0.057434082,0.53125,-0.046875,0.515625
1664889399725,0.053222656,-0.9697876,-0.0335083,1.28125,-0.640625,-0.625
1664889399745,0.044677734,-1.0059204,-0.06890869,2.78125,-0.578125,0.90625
1664889399789,0.06201172,-0.9859009,-0.069885254,-2.609375,-0.265625,-1.234375
1664889399823,0.035888672,-1.0056763,-0.034973145,1.90625,-0.359375,-0.234375
1664889399869,0.044921875,-0.9854126,-0.050598145,0.578125,-0.140625,0.40625
1664889399930,0.055419922,-0.9793091,-0.0647583,1.046875,0.25,-0.09375
1664889399950,0.044433594,-1.0054321,-0.05255127,2.421875,-0.140625,0.453125
1664889399980,0.052978516,-0.9824829,-0.054748535,0.578125,-0.921875,0.421875
1664889400026,0.048583984,-0.98321533,-0.055480957,0.734375,-0.0625,-0.375
1664889400084,0.041259766,-0.9956665,-0.059143066,0.765625,-1.046875,-0.015625
1664889400105,0.056396484,-0.9883423,-0.0569458,0.8125,-0.453125,-0.109375
1664889400161,0.044433594,-0.99224854,-0.054504395,-0.21875,0.03125,-0.4375
1664889400184,0.049560547,-0.99420166,-0.05328369,-0.09375,-0.25,-0.125
1664889400230,0.04272461,-0.9812622,-0.046447754,0.25,0.625,-0.703125
1664889400262,0.03857422,-0.99224854,-0.059631348,-1.328125,0.046875,-0.546875
1664889400295,0.06298828,-0.97784424,-0.05621338,-2.140625,-0.375,-0.84375
1664889400341,0.020507812,-0.9932251,-0.027160645,3.75,0.875,-0.125
1664889400375,0.039794922,-0.98760986,-0.06573486,-5.90625,-1.09375,-0.953125
1664889400422,0.052246094,-0.9993286,-0.031311035,-0.234375,0.09375,-2.03125
1664889400456,0.041748047,-0.99102783,-0.051818848,1.5625,0.140625,-0.671875
1664889400497,0.061767578,-0.99053955,-0.046447754,0.171875,0.703125,-1.8125
1664889400533,0.020019531,-0.97979736,-0.023498535,-0.140625,0.421875,-2.5625
1664889400577,0.018066406,-1.0029907,-0.038635254,0.140625,-0.71875,-0.546875
1664889400611,0.07861328,-0.9529419,-0.045715332,1.078125,1.140625,-1.875
1664889400655,-0.0068359375,-1.0244751,-0.050109863,-0.375,0.75,-1.8125
1664889400689,0.056884766,-0.975647,-0.059387207,1.109375,-0.296875,-0.578125
1664889400734,0.021484375,-0.99102783,-0.038635254,-0.4375,0.53125,-2.171875
1664889400790,4.8828125E-4,-1.0020142,-0.035705566,0.703125,1.046875,-0.71875
1664889400813,0.03930664,-0.9890747,-0.043518066,0.40625,-0.53125,-1.296875
1664889400869,0.026611328,-0.9866333,-0.021057129,0.703125,-1.25,-2.578125
1664889400891,0.026367188,-0.98687744,-0.031555176,-3.0,-2.375,-3.453125
1664889400938,0.008300781,-1.0076294,-0.016174316,4.171875,-2.46875,-3.8125
1664889400969,0.038085938,-0.9883423,-0.04840088,-2.9375,-4.609375,-3.859375
1664889401005,0.009277344,-0.99420166,-0.024475098,0.71875,-3.375,-5.65625
1664889401051,-0.028808594,-1.0039673,-0.028381348,2.9375,-3.796875,-2.703125
1664889401086,-0.047851562,-0.9793091,-0.042053223,1.171875,-3.171875,-1.828125
1664889401129,-0.03881836,-0.9973755,-0.027160645,4.984375,1.34375,-0.46875
1664889401185,-0.04296875,-1.0117798,-0.027404785,4.96875,0.28125,0.765625
1664889401208,-0.0026855469,-0.9898071,-0.04815674,4.84375,0.734375,0.875
1664889401243,-0.03491211,-0.9981079,-0.04547119,4.15625,1.09375,1.015625
1664889401288,-0.025634766,-1.0142212,-0.0713501,3.5625,0.90625,3.15625
1664889401320,0.015625,-0.98809814,-0.07476807,3.6875,0.578125,1.578125
1664889401365,0.021240234,-1.0025024,-0.08111572,2.515625,-0.171875,0.796875
1664889401399,0.013916016,-0.99786377,-0.07696533,1.859375,-1.15625,1.0
