# Sensor type: Respeck
# Activity type: Descending stairs
# Activity code: 13
# Subject id: s1918275
# Notes: 
timestamp,accel_x,accel_y,accel_z,gyro_x,gyro_y,gyro_z
1664985539409,-0.06665039,-0.9651489,-0.033996582,6.4375,4.078125,-2.171875
1664985539438,-0.125,-0.99468994,-0.006652832,3.78125,4.90625,0.09375
1664985539481,-0.15649414,-1.0081177,-0.0022583008,1.484375,5.015625,-1.484375
1664985539511,-0.11694336,-0.97906494,-0.011291504,2.84375,3.828125,-2.21875
1664985539556,-0.15063477,-0.99713135,-0.0020141602,2.3125,3.53125,-2.765625
1664985539604,-0.15917969,-1.0046997,-0.013244629,1.109375,3.484375,-3.609375
1664985539634,-0.13793945,-0.9768677,-0.007873535,3.453125,3.5625,-3.609375
1664985539707,-0.15283203,-0.97125244,-0.014709473,2.90625,4.3125,-2.421875
1664985539723,-0.1821289,-1.0046997,0.0048217773,4.5,3.78125,-3.265625
1664985539752,-0.15551758,-0.9758911,-0.024719238,2.421875,5.609375,-4.671875
1664985539834,-0.20288086,-0.9734497,-0.024963379,3.171875,3.46875,-5.328125
1664985539842,-0.16625977,-0.9644165,-0.034484863,1.234375,3.828125,-6.34375
1664985539874,-0.20507812,-0.9937134,-0.07183838,3.484375,4.921875,-4.34375
1664985539917,-0.15844727,-0.94781494,-0.09576416,0.984375,4.515625,-6.5625
1664985539948,-0.20507812,-0.9812622,-0.039611816,6.34375,2.890625,-3.359375
1664985539992,-0.23999023,-1.0232544,-0.081848145,3.265625,3.84375,-2.953125
1664985540037,-0.23046875,-0.9927368,-0.10772705,5.90625,3.953125,-5.4375
1664985540067,-0.17236328,-0.923645,-0.10601807,6.46875,4.53125,-0.328125
1664985540114,-0.15307617,-1.0161743,-0.093811035,1.765625,1.859375,2.59375
1664985540158,-0.14941406,-0.97198486,-0.08477783,6.046875,-2.578125,5.953125
1664985540190,-0.24243164,-0.8731079,-0.093811035,4.015625,-5.0,2.46875
1664985540232,-0.25097656,-0.9751587,-0.117492676,3.53125,-2.796875,-1.15625
1664985540262,-0.20874023,-1.0542603,-0.12823486,2.390625,-4.28125,-2.9375
1664985540307,-0.22875977,-0.97979736,-0.10748291,3.1875,-2.40625,-3.0625
1664985540389,-0.28808594,-0.897522,-0.13726807,1.453125,0.8125,-2.8125
1664985540396,-0.21459961,-0.9380493,-0.15167236,2.953125,4.375,-0.671875
1664985540429,-0.14257812,-0.92926025,-0.09259033,6.34375,1.359375,4.125
1664985540507,-0.32104492,-1.0176392,-0.11553955,5.453125,1.96875,2.921875
1664985540512,-0.25976562,-1.0032349,-0.086242676,1.90625,3.125,4.890625
1664985540578,-0.25585938,-0.98516846,-0.1026001,-3.484375,3.96875,0.078125
1664985540584,-0.31640625,-0.9846802,-0.06085205,4.84375,1.046875,0.53125
1664985540625,-0.18334961,-0.8740845,-0.13848877,-4.5625,-0.40625,0.765625
1664985540667,-0.23095703,-0.9273071,-0.11602783,-0.390625,-2.203125,0.78125
1664985540699,-0.2607422,-0.94073486,-0.089660645,4.875,-1.59375,1.0625
1664985540745,-0.25219727,-0.88287354,-0.12408447,0.8125,0.578125,1.078125
1664985540787,-0.11669922,-0.7893677,-0.12896729,-0.515625,-4.546875,5.015625
1664985540820,-0.20117188,-0.8052368,-0.066223145,5.78125,-6.171875,5.671875
1664985540862,-0.24243164,-0.770813,-0.07232666,4.359375,-4.796875,4.484375
1664985540907,-0.29589844,-0.864563,-0.105529785,-1.640625,-5.546875,4.84375
1664985540938,-0.28222656,-0.9734497,-0.06304932,-0.953125,-0.859375,-0.46875
1664985540985,-0.39331055,-0.87823486,-0.1338501,-4.46875,-1.84375,0.046875
1664985541014,-0.13842773,-0.9524536,-0.062561035,-10.203125,-3.5,0.921875
1664985541059,-0.07543945,-0.8208618,-0.006652832,-8.90625,-3.671875,4.671875
1664985541134,-0.57958984,-1.1138306,0.08148193,-11.609375,5.6875,-4.546875
1664985541140,-0.25610352,-0.8032837,-0.047424316,-22.84375,-2.90625,-10.734375
1664985541214,0.05419922,-0.8179321,0.027770996,-5.25,15.1875,14.46875
1664985541221,-0.087646484,-1.5032349,-0.30010986,-13.984375,3.03125,35.4375
1664985541254,0.29760742,-2.0,0.0692749,-8.234375,-2.640625,13.203125
1664985541300,-0.46240234,-1.1973267,-0.06036377,9.953125,-19.21875,-18.828125
1664985541328,-0.076416016,-0.9487915,-0.13018799,2.59375,22.328125,-16.15625
1664985541371,0.038085938,-0.81451416,0.009460449,-1.578125,15.21875,9.90625
1664985541417,-0.08911133,-0.7295532,-0.06573486,-4.90625,6.328125,11.984375
1664985541447,0.06738281,-0.8272095,0.051696777,-4.15625,8.671875,9.625
1664985541491,-0.03857422,-0.97735596,0.014343262,-6.703125,-3.609375,6.109375
1664985541537,-0.13183594,-1.0046997,-0.010070801,-4.59375,-1.9375,5.546875
1664985541571,0.057617188,-1.0349731,0.051940918,-7.265625,2.0625,5.9375
1664985541611,-0.036621094,-1.0762329,0.055603027,-8.765625,-0.234375,9.0625
1664985541686,-0.20629883,-0.92388916,0.03289795,1.203125,0.796875,-0.453125
1664985541689,0.033447266,-0.87579346,0.06854248,0.796875,4.828125,-0.796875
1664985541732,0.025634766,-1.0149536,0.057556152,-1.171875,-3.40625,2.796875
1664985541761,-0.107421875,-1.0252075,0.054870605,-0.40625,-1.8125,1.875
1664985541808,0.030761719,-0.9717407,0.044128418,0.03125,-5.25,-0.5
1664985541884,-0.21679688,-0.9365845,0.11004639,-1.15625,-9.234375,-6.5
1664985541890,-0.3779297,-0.84454346,0.085632324,-3.234375,10.046875,-11.25
1664985541957,-0.09765625,-1.0615845,0.17523193,-2.484375,13.828125,-19.390625
1664985541972,-0.19360352,-0.82159424,0.06781006,-1.21875,2.578125,-17.984375
1664985542002,-0.07861328,-0.6868286,0.0848999,3.0625,19.328125,-7.625
1664985542048,-0.0087890625,-0.9170532,0.19744873,0.171875,7.921875,-7.671875
1664985542078,-0.3215332,-0.71099854,0.101989746,7.265625,6.890625,-5.546875
1664985542122,-0.17578125,-0.5923462,0.1161499,8.0625,16.328125,-3.03125
1664985542171,-0.1015625,-1.0735474,0.2526245,5.75,10.375,-5.5
1664985542200,-0.46166992,-1.071106,0.10028076,13.84375,-4.328125,-11.96875
1664985542243,-0.099121094,-1.1226196,0.120788574,8.46875,-4.03125,-14.15625
1664985542290,-0.23925781,-1.5991821,-0.1609497,4.921875,-3.28125,-8.703125
1664985542319,-0.22265625,-1.322815,-0.31744385,9.484375,16.671875,11.46875
1664985542363,0.031982422,-1.0181274,-0.022521973,32.265625,1.53125,-6.015625
1664985542395,-0.3564453,-0.97491455,0.06512451,-1.6875,14.765625,14.359375
1664985542437,-0.5407715,-1.2190552,-0.0947876,-1.875,1.6875,-0.46875
1664985542483,0.03125,-1.0786743,-0.06304932,7.65625,8.09375,1.140625
1664985542514,-0.16430664,-0.9138794,-0.086242676,5.921875,6.90625,-2.296875
1664985542557,-0.27075195,-0.83184814,-0.101867676,6.609375,-0.953125,-9.890625
1664985542636,-0.24902344,-0.86138916,-0.07232666,4.453125,1.875,-4.203125
1664985542644,-0.12670898,-0.91290283,-0.13604736,-0.0625,1.6875,-5.859375
1664985542709,-0.24731445,-0.9846802,-0.07672119,-0.265625,-3.140625,-1.796875
1664985542725,-0.23754883,-0.8440552,-0.113098145,-0.515625,-7.3125,-4.171875
1664985542755,-0.20092773,-0.7683716,0.041931152,-7.234375,-3.359375,-4.71875
1664985542799,-0.33398438,-0.82940674,-0.013977051,-7.328125,-4.515625,1.296875
1664985542827,-0.35913086,-1.0198364,-0.11383057,-10.78125,-25.6875,-3.703125
1664985542872,-0.17260742,-0.83135986,0.2597046,-9.6875,1.265625,7.578125
1664985542950,-0.5852051,-0.6265259,-0.14215088,-17.125,-16.171875,5.828125
1664985542958,-0.18432617,-0.972229,0.22943115,-14.734375,-5.578125,-2.09375
1664985542991,-0.5600586,-1.041565,-0.10675049,-6.8125,-3.21875,-2.328125
1664985543038,-0.11450195,-1.1358032,0.044128418,-6.625,9.6875,-3.34375
1664985543069,-0.12597656,-1.6218872,0.121032715,-6.703125,24.65625,8.65625
1664985543119,0.19433594,-1.104065,-0.12310791,6.265625,-8.171875,19.890625
1664985543142,-0.14086914,-1.102356,0.02142334,7.03125,-19.6875,16.359375
1664985543186,-0.3330078,-1.1880493,0.054138184,12.625,-8.75,7.9375
1664985543233,-0.046875,-0.9631958,-0.0056762695,8.203125,-8.59375,2.3125
1664985543262,-0.047607422,-0.91070557,0.021911621,0.609375,-0.921875,6.203125
1664985543309,-0.095458984,-1.0466919,0.08270264,1.84375,-4.25,11.953125
1664985543385,-0.072265625,-0.9365845,0.010437012,-2.40625,-12.359375,4.03125
1664985543389,-0.13110352,-0.88482666,0.04095459,3.578125,-4.90625,3.828125
1664985543457,-0.04248047,-0.8731079,0.116882324,0.859375,-2.71875,3.859375
1664985543473,-0.20043945,-0.81988525,0.04095459,0.390625,2.125,1.59375
1664985543503,-0.09301758,-0.8452759,0.081970215,-0.640625,10.28125,2.25
1664985543548,-0.0690918,-0.8320923,0.11810303,2.5,2.21875,-6.65625
1664985543578,-0.14428711,-0.6836548,0.10101318,-0.828125,12.5625,-1.046875
1664985543624,-0.063964844,-0.7180786,0.047790527,6.625,6.234375,-3.53125
1664985543668,-0.076660156,-0.9319458,0.18670654,2.390625,8.09375,-4.5625
1664985543700,-0.18896484,-0.9421997,0.055603027,4.390625,-0.15625,-1.953125
1664985543742,-0.18310547,-1.0147095,0.21673584,7.5,1.71875,-14.59375
1664985543787,-0.04345703,-1.4319458,0.043640137,0.265625,-7.1875,-7.28125
1664985543819,-0.21655273,-1.5376587,-0.2962036,12.609375,-5.015625,3.4375
1664985543864,-0.20751953,-1.1629028,-0.2666626,21.0625,3.34375,10.390625
1664985543893,-0.17626953,-1.3379517,-0.23638916,16.546875,-5.765625,-3.0
1664985543937,-0.19067383,-1.1824341,-0.09088135,1.765625,-4.71875,-4.921875
1664985543982,-0.28393555,-0.86431885,-0.15557861,1.84375,4.265625,-6.09375
1664985544012,-0.092041016,-0.88897705,-0.12506104,6.546875,-2.296875,-2.328125
1664985544058,-0.048339844,-0.8701782,-0.19293213,6.0,-4.34375,2.984375
1664985544133,-0.26171875,-0.86138916,-0.16680908,6.65625,-5.109375,-1.078125
1664985544137,-0.12597656,-0.88604736,-0.17974854,6.25,-10.953125,-1.046875
1664985544208,-0.10986328,-0.8093872,-0.12750244,4.828125,-11.34375,2.484375
1664985544211,-0.19750977,-0.8101196,-0.14019775,3.640625,-10.59375,2.1875
1664985544283,-0.13598633,-0.7871704,-0.061828613,-3.90625,-13.40625,-3.078125
1664985544299,-0.16894531,-0.7024536,-0.09893799,-6.8125,-19.171875,6.953125
1664985544332,-0.36450195,-0.9209595,-0.16314697,-1.625,-6.53125,1.03125
1664985544371,-0.07714844,-0.7073364,-0.0076293945,-11.25,-15.65625,-7.828125
1664985544417,-0.4885254,-0.96881104,0.031677246,-12.25,3.640625,11.171875
1664985544450,-0.3371582,-1.413147,-0.105773926,-17.515625,-7.15625,-15.578125
1664985544491,0.01928711,-0.63604736,0.012145996,-16.4375,4.125,6.4375
1664985544569,-0.61572266,-1.0022583,-0.06304932,-19.359375,24.6875,3.03125
1664985544576,0.09399414,-1.6633911,-0.20831299,-8.453125,10.328125,-3.125
1664985544613,0.7446289,-1.2092896,-0.10235596,-12.46875,-27.4375,15.703125
1664985544644,-0.44433594,-1.3508911,0.034362793,8.078125,-17.28125,20.328125
1664985544690,-0.40356445,-1.0320435,-0.07501221,13.328125,4.953125,-12.71875
1664985544734,0.29418945,-0.9793091,-0.012512207,2.578125,5.546875,6.59375
1664985544763,-0.095947266,-1.1323853,0.090026855,-9.015625,-8.0625,19.921875
1664985544839,-0.30810547,-0.8870239,-0.065979004,5.09375,-0.890625,0.234375
1664985544853,0.083740234,-0.7241821,-0.028137207,6.90625,3.734375,1.140625
1664985544884,0.019042969,-0.800354,0.038024902,-0.578125,-3.59375,4.234375
1664985544957,-0.16455078,-1.0637817,0.1515503,-5.015625,12.03125,3.015625
1664985544961,-0.10888672,-0.86676025,0.05267334,-6.109375,10.953125,-2.953125
1664985545002,-0.028808594,-0.5046997,0.0138549805,-3.828125,11.890625,0.421875
1664985545051,-0.08691406,-0.7893677,0.1786499,0.203125,13.421875,-1.734375
1664985545077,-0.1340332,-0.8753052,0.04071045,4.984375,9.734375,-11.171875
1664985545123,0.059814453,-0.70025635,0.094177246,4.515625,14.203125,-2.421875
1664985545169,-0.06958008,-0.9883423,0.14105225,2.390625,3.265625,-4.3125
1664985545199,-0.111572266,-0.9937134,0.17059326,9.421875,3.640625,-10.25
1664985545245,-0.095947266,-1.1653442,-0.11651611,5.46875,-7.65625,-6.84375
1664985545272,-0.0012207031,-1.6292114,-0.25689697,15.609375,-3.75,-1.40625
1664985545319,-0.48339844,-1.6338501,-0.4216919,21.3125,3.03125,3.265625
1664985545363,0.03564453,-1.4490356,-0.06695557,19.75,2.171875,-11.984375
1664985545395,-0.20410156,-1.0637817,-0.21929932,-8.1875,-0.6875,-0.265625
1664985545437,-0.42504883,-0.8491821,-0.23956299,3.546875,7.875,-12.609375
1664985545514,-0.061035156,-0.8682251,-0.116760254,10.140625,13.796875,-2.734375
1664985545520,-0.15429688,-0.7402954,-0.2786255,5.578125,11.546875,-0.75
1664985545587,-0.25073242,-0.84576416,-0.21539307,9.703125,7.9375,-1.59375
1664985545603,-0.0949707,-1.0066528,-0.20098877,7.203125,4.140625,0.625
1664985545632,-0.21728516,-0.91656494,-0.16949463,1.140625,1.65625,1.828125
1664985545692,-0.22387695,-0.89385986,-0.15997314,-0.171875,2.6875,-1.0
1664985545706,-0.1394043,-0.831604,-0.1260376,0.375,1.484375,2.609375
1664985545751,-0.20019531,-0.8128052,-0.1741333,-0.53125,-4.09375,4.296875
1664985545799,-0.13452148,-0.7407837,-0.02154541,4.59375,-3.453125,1.875
1664985545829,-0.14697266,-0.64630127,-0.17266846,-7.28125,-8.265625,7.296875
1664985545875,-0.19384766,-0.8831177,-0.061584473,-8.234375,-11.28125,4.546875
1664985545919,-0.1262207,-0.7149048,-0.090148926,-7.203125,-13.640625,2.015625
1664985545948,-0.5058594,-1.123352,-0.07305908,-10.3125,-2.375,1.859375
1664985545995,-0.19311523,-1.1123657,-0.0803833,-10.359375,-4.71875,-5.4375
1664985546023,-0.3786621,-0.99102783,-0.09039307,-6.125,1.09375,4.890625
1664985546068,-0.27246094,-1.4043579,-0.10675049,-14.109375,8.703125,-6.546875
1664985546112,0.28808594,-1.3738403,0.013122559,-11.71875,20.296875,17.5
1664985546141,-0.0024414062,-1.0701294,-0.13677979,-1.21875,-7.171875,16.8125
1664985546188,-0.38867188,-1.0562134,-0.14556885,8.3125,-4.203125,0.765625
1664985546234,0.17553711,-1.0352173,0.02508545,2.765625,6.484375,2.703125
1664985546262,-0.020019531,-1.0552368,-0.09893799,-3.90625,-9.015625,11.921875
1664985546338,-0.125,-1.0100708,-0.008850098,0.234375,-3.953125,4.03125
1664985546353,-0.05834961,-0.9788208,0.014343262,2.0625,-1.796875,1.140625
1664985546382,-0.07763672,-0.90216064,-0.008605957,-0.6875,-2.890625,-3.28125
1664985546441,-0.09057617,-0.96954346,-0.0012817383,1.546875,5.75,-2.546875
1664985546458,-0.012451172,-0.8804321,-0.035461426,-2.4375,-2.40625,-3.375
1664985546501,-0.10449219,-0.8179321,0.018005371,-0.5,0.25,-0.03125
1664985546546,-0.14257812,-0.87579346,0.062927246,0.8125,9.265625,-0.5
1664985546577,-0.059814453,-0.7695923,-0.022277832,4.1875,7.875,-5.59375
1664985546623,-0.10888672,-0.64630127,0.05633545,9.34375,8.953125,-7.796875
1664985546667,-0.057373047,-0.61724854,-0.026428223,4.375,12.8125,-3.328125
1664985546698,-0.08081055,-0.87091064,0.086364746,4.75,8.765625,-3.25
1664985546744,-0.1550293,-1.0437622,0.10003662,3.328125,4.265625,-10.015625
1664985546774,-0.17089844,-1.2044067,0.085876465,0.46875,3.359375,-8.640625
1664985546834,-0.049072266,-1.388977,-0.09893799,3.203125,-2.34375,-5.609375
1664985546867,0.092041016,-1.440979,-0.23175049,7.890625,-0.53125,11.625
1664985546894,-0.29418945,-1.2615356,-0.36602783,12.171875,-7.6875,11.40625
1664985546968,-0.17211914,-1.1848755,-0.039367676,10.390625,-0.34375,-8.40625
1664985546984,-0.25512695,-1.2612915,-0.16363525,-20.484375,5.0,2.953125
1664985547013,-0.31323242,-1.1065063,-0.18951416,8.296875,-2.078125,-10.0625
1664985547091,0.025634766,-0.88848877,-0.08331299,4.734375,1.015625,2.3125
1664985547095,-0.16821289,-0.74224854,-0.13775635,1.546875,-2.484375,-3.0
1664985547133,-0.20874023,-0.9026489,-0.15435791,7.625,-5.125,0.171875
1664985547178,-0.038085938,-0.94854736,-0.14605713,7.75,-2.9375,6.890625
1664985547208,-0.21508789,-0.8670044,-0.16290283,4.1875,-7.859375,0.34375
1664985547251,-0.22167969,-0.84210205,-0.17340088,4.890625,-6.3125,-0.578125
1664985547298,-0.103759766,-0.82476807,-0.1026001,2.984375,-5.71875,-0.015625
1664985547327,-0.13574219,-0.77471924,-0.11187744,-1.09375,-6.234375,2.125
1664985547372,-0.22460938,-0.85723877,-0.057434082,-5.734375,-7.78125,-0.296875
1664985547418,-0.118896484,-0.81500244,-0.02178955,-8.359375,-10.96875,-4.8125
1664985547451,-0.16601562,-0.66290283,-0.1482544,-15.46875,-14.1875,7.65625
1664985547495,-0.32055664,-1.107727,-0.02154541,-7.1875,-0.953125,-0.828125
1664985547521,-0.22485352,-0.98443604,-0.016906738,-11.40625,-5.984375,-6.953125
1664985547567,-0.40283203,-1.0349731,0.020690918,-24.765625,3.03125,-3.28125
1664985547614,-0.2084961,-1.1834106,0.03778076,-14.671875,-0.046875,-7.171875
1664985547643,-0.2253418,-1.4072876,-0.077697754,-18.21875,17.578125,4.15625
1664985547718,-0.0107421875,-1.2503052,-0.112854004,-5.5625,18.28125,4.84375
1664985547733,0.2685547,-0.9553833,-0.026672363,4.34375,-8.484375,9.03125
1664985547762,-0.33911133,-1.1582642,0.058532715,4.296875,1.703125,9.640625
1664985547822,-0.059814453,-1.1382446,-0.043029785,7.890625,5.703125,4.0
1664985547837,0.021240234,-0.9624634,0.025817871,-3.0625,1.09375,10.296875
1664985547881,-0.09448242,-0.9534302,0.047058105,1.578125,3.75,6.4375
1664985547928,-0.091552734,-0.8740845,0.009216309,3.375,4.375,4.4375
1664985547967,0.008544922,-0.94122314,0.06781006,2.28125,4.328125,5.796875
1664985548003,-0.04711914,-1.0405884,0.06781006,1.390625,-0.984375,1.5
1664985548079,-0.13354492,-0.817688,0.04119873,5.75,4.625,-1.109375
1664985548085,-0.13061523,-0.56207275,0.0211792,4.40625,10.875,-3.328125
1664985548121,-0.015136719,-0.74713135,0.14959717,-1.4375,15.109375,-1.390625
1664985548167,-0.1394043,-1.0386353,0.019470215,4.390625,3.375,-5.046875
1664985548202,0.025878906,-0.8049927,0.0060424805,3.921875,7.296875,-5.546875
1664985548242,0.020996094,-0.895813,0.22747803,1.4375,-5.5,-1.609375
1664985548275,-0.35473633,-1.1292114,0.08856201,0.109375,-3.5,-13.0625
1664985548316,-0.27807617,-0.88482666,-0.054260254,16.65625,8.796875,-14.75
1664985548363,0.16845703,-1.0432739,0.1305542,0.140625,7.265625,-8.109375
1664985548393,-0.2434082,-1.3782349,-0.2390747,1.5625,-12.5625,-3.5625
1664985548472,-0.08496094,-1.2251587,-0.06085205,19.328125,1.203125,-3.5625
1664985548545,-0.28808594,-1.0305786,-0.27911377,8.4375,-2.078125,6.390625
1664985548550,-0.32177734,-1.3042603,-0.17095947,6.890625,16.359375,-3.84375
1664985548559,-0.001953125,-1.4609985,-0.035949707,6.46875,1.484375,0.5625
1664985548588,-0.14697266,-0.9866333,-0.039367676,1.375,4.71875,-1.828125
1664985548632,-0.21044922,-0.7625122,-0.14068604,2.03125,-2.109375,1.125
1664985548679,-0.12231445,-0.8609009,-0.10699463,8.140625,-2.703125,5.171875
1664985548710,-0.123046875,-0.83551025,-0.16119385,8.703125,-6.71875,2.921875
1664985548768,-0.14477539,-0.786438,-0.15631104,9.546875,-7.5,2.453125
1664985548804,-0.16772461,-0.79107666,-0.12701416,10.671875,-7.71875,0.671875
1664985548829,-0.034179688,-0.6560669,-0.11895752,6.578125,-6.8125,-1.109375
1664985548873,-0.140625,-0.7210083,-0.10284424,-1.9375,-14.578125,4.625
1664985548902,-0.20800781,-0.81866455,-0.054016113,-1.140625,-16.203125,0.0625
1664985548946,-0.33764648,-0.83135986,-0.09527588,-10.796875,-14.09375,-6.5
1664985548993,-0.28442383,-1.0437622,-0.10333252,-21.359375,-11.09375,-7.921875
1664985549023,0.020507812,-1.1526489,-0.08502197,-13.265625,-12.328125,6.265625
1664985549072,-0.22949219,-1.315979,-0.0049438477,-21.375,9.328125,5.546875
1664985549113,-0.06665039,-1.1983032,-0.36920166,-13.96875,-13.1875,3.71875
1664985549142,0.37426758,-1.383606,0.16473389,0.25,-7.578125,16.671875
1664985549217,-0.5900879,-1.2888794,-0.25689697,-0.875,-20.328125,-3.1875
1664985549233,0.027832031,-1.034729,-0.057922363,1.953125,9.859375,-6.015625
1664985549263,0.14672852,-1.0994263,0.028747559,-6.515625,-5.890625,12.734375
1664985549307,-0.21582031,-0.9402466,-0.04864502,0.3125,-2.359375,-0.734375
1664985549340,0.016357422,-0.7666626,-0.036193848,1.796875,2.71875,-2.71875
1664985549399,0.033935547,-0.89923096,0.031433105,0.234375,1.34375,3.171875
1664985549426,-0.12231445,-0.8977661,0.0040893555,-1.9375,1.8125,0.203125
1664985549459,-0.07324219,-0.74835205,-0.010070801,5.390625,5.90625,0.46875
1664985549501,-0.010498047,-0.84210205,0.039001465,0.859375,10.015625,-2.03125
1664985549546,-0.041015625,-0.8748169,0.09954834,5.75,1.1875,-1.28125
1664985549578,-0.100097656,-0.78692627,0.047058105,5.8125,5.484375,-1.515625
1664985549624,9.765625E-4,-0.835022,-0.0015258789,7.265625,9.953125,2.171875
1664985549659,-0.13916016,-0.88165283,0.08123779,8.109375,-0.46875,-9.734375
1664985549698,-0.02734375,-0.9273071,0.0026245117,7.609375,2.953125,-2.0
1664985549741,-0.15625,-1.0747681,-0.0012817383,3.265625,-1.25,-9.171875
1664985549775,-0.031982422,-1.3450317,-0.047424316,-0.234375,-4.59375,-11.296875
1664985549818,-0.12841797,-1.2957153,-0.2930298,6.640625,3.890625,4.953125
1664985549901,-0.068847656,-1.0366821,-0.20562744,12.34375,-0.15625,2.96875
1664985549908,-0.42016602,-1.3171997,-0.26715088,-0.390625,10.203125,-2.90625
1664985549940,-0.08666992,-1.3787231,-0.097473145,12.390625,5.15625,-9.171875
1664985550011,-0.068115234,-0.98687744,-0.12945557,0.796875,5.25,-0.8125
1664985550015,-0.35253906,-0.8699341,-0.21221924,-1.40625,11.453125,-2.59375
1664985550057,-0.13647461,-0.9973755,-0.11260986,6.5,3.15625,-2.9375
1664985550087,-0.103759766,-0.86968994,-0.17510986,-0.375,3.421875,-2.234375
1664985550131,-0.24121094,-0.9089966,-0.14190674,5.0625,6.625,-0.5625
1664985550178,-0.14672852,-0.9265747,-0.10748291,1.890625,3.8125,0.171875
1664985550211,-0.17675781,-0.8123169,-0.13165283,-0.015625,0.578125,2.40625
1664985550253,-0.2331543,-0.85650635,-0.12261963,-3.328125,0.84375,-0.140625
1664985550297,-0.17944336,-0.9661255,-0.07110596,-3.984375,-1.203125,-2.265625
1664985550330,-0.10644531,-0.7527466,-0.0647583,-8.59375,-8.453125,-2.5
1664985550373,-0.2055664,-0.63775635,-0.009338379,-10.859375,-7.65625,0.78125
1664985550402,-0.22583008,-0.7251587,-0.016906738,-8.328125,-6.171875,0.171875
1664985550447,-0.30737305,-0.84210205,-0.034729004,-12.921875,-8.296875,1.671875
1664985550493,-0.4411621,-1.2153931,0.010437012,-14.78125,-3.75,-2.984375
1664985550522,-0.1640625,-0.9590454,-0.01373291,-11.859375,1.46875,-10.984375
1664985550569,-0.54785156,-1.1155396,0.018493652,-23.375,14.734375,-1.28125
1664985550643,0.028320312,-1.6836548,-0.097229004,-17.59375,6.453125,-5.9375
1664985550647,0.42211914,-1.1709595,0.058776855,-7.28125,2.078125,25.90625
1664985550717,-0.4831543,-0.90093994,-0.06842041,1.296875,-22.359375,12.484375
1664985550721,-0.4350586,-1.0842896,0.026306152,15.578125,12.640625,-11.671875
1664985550793,0.33911133,-1.2359009,0.14154053,-2.171875,3.453125,9.609375
1664985550808,-0.1628418,-1.1101685,0.0927124,-11.546875,-13.484375,11.90625
1664985550839,-0.28149414,-0.9002075,0.08123779,3.578125,-0.21875,-1.59375
1664985550884,0.024658203,-0.8723755,0.08758545,1.484375,-2.234375,0.109375
1664985550926,-0.16381836,-0.9216919,0.058532715,0.6875,-3.25,1.71875
1664985550961,-0.11401367,-0.9290161,0.08831787,2.03125,2.96875,0.640625
1664985551002,-0.05834961,-0.85406494,0.11151123,0.8125,4.515625,3.40625
1664985551047,-0.18164062,-0.82818604,0.08660889,0.9375,5.09375,4.34375
1664985551078,-0.1665039,-0.7468872,0.077819824,4.890625,8.796875,-0.375
1664985551122,-0.12060547,-0.7930298,0.10101318,4.84375,11.890625,-2.625
1664985551152,-0.07080078,-0.84820557,0.04949951,4.59375,8.21875,-3.625
1664985551197,0.03955078,-0.83917236,0.12225342,1.4375,10.34375,-0.359375
1664985551242,-0.09008789,-1.0335083,0.11907959,3.734375,2.828125,-0.28125
1664985551273,-0.13085938,-1.0171509,0.12982178,0.703125,-7.703125,-6.65625
1664985551346,-0.21435547,-1.0818481,0.2850952,-1.53125,-0.296875,-7.734375
1664985551361,-0.28198242,-0.94610596,0.041931152,3.921875,-6.828125,-7.1875
1664985551392,0.048339844,-1.2329712,0.058288574,0.484375,-0.8125,-9.140625
1664985551467,0.049316406,-1.5945435,-0.1428833,5.5,-19.703125,1.21875
1664985551471,-0.3828125,-0.97369385,-0.11993408,22.578125,-4.421875,-0.046875
1664985551513,-0.21508789,-0.9019165,-0.17266846,5.0,2.65625,1.140625
1664985551557,-0.03100586,-1.4751587,-0.06036377,2.8125,-2.265625,1.6875
1664985551586,-0.11791992,-1.0491333,-0.004211426,17.359375,-2.265625,4.140625
1664985551635,-0.29956055,-0.7503052,-0.16217041,9.734375,-0.3125,0.890625
1664985551678,-0.17651367,-1.0361938,-0.117492676,13.125,-1.1875,-4.984375
1664985551707,-0.07006836,-0.97320557,-0.09161377,11.421875,2.171875,3.96875
1664985551759,-0.23632812,-0.8909302,-0.12506104,8.96875,-1.5625,1.015625
1664985551781,-0.16699219,-0.90582275,-0.12579346,11.046875,-4.078125,1.125
1664985551829,-0.19458008,-0.95196533,-0.14874268,5.53125,-1.1875,0.859375
1664985551903,-0.24121094,-0.97198486,-0.08892822,1.359375,-3.015625,-6.53125
1664985551914,-0.22070312,-0.90460205,-0.07965088,-0.875,1.265625,-1.8125
1664985551962,-0.118652344,-0.84088135,-0.09527588,-1.296875,-2.234375,-5.40625
1664985551992,-0.22192383,-0.87457275,-0.09649658,-5.90625,-3.546875,3.515625
1664985552027,-0.14550781,-0.78448486,-0.086242676,-4.46875,-6.640625,0.796875
1664985552067,-0.2084961,-0.7756958,-0.058654785,-4.203125,-6.75,1.9375
1664985552145,-0.16748047,-0.75787354,-0.0134887695,-5.59375,-7.875,0.890625
1664985552149,-0.23535156,-0.77130127,0.011413574,-7.84375,-8.234375,4.046875
1664985552219,-0.4350586,-1.1201782,0.026062012,-13.28125,-2.640625,-5.796875
1664985552226,-0.1743164,-0.9234009,-0.15435791,-21.0,-14.9375,-9.640625
1664985552263,-0.15307617,-1.2107544,0.09100342,-10.671875,14.40625,6.390625
1664985552308,-0.16552734,-1.4644165,-0.21954346,-15.3125,9.828125,5.5625
1664985552338,0.3413086,-0.8882446,-0.07623291,0.5,-12.390625,6.328125
1664985552386,-0.17919922,-1.3816528,0.019714355,-4.59375,8.625,21.640625
1664985552429,-0.3251953,-1.2498169,-0.08380127,4.703125,-12.5,8.03125
1664985552460,-0.1772461,-0.9360962,-0.028381348,3.125,12.8125,-8.9375
1664985552503,-0.024902344,-1.0842896,-0.07696533,5.09375,8.890625,0.265625
1664985552531,0.010986328,-0.96466064,0.028015137,1.4375,3.265625,9.078125
1664985552577,-0.1508789,-0.85601807,0.013122559,1.03125,7.671875,6.40625
1664985552624,-0.12133789,-0.9077759,-6.1035156E-5,3.21875,5.421875,0.234375
1664985552652,-0.03930664,-0.7866821,-0.039611816,6.890625,11.296875,4.703125
1664985552697,-0.115234375,-0.7202759,0.062194824,4.8125,10.25,1.765625
1664985552742,-0.15649414,-0.78741455,0.0014038086,2.21875,17.328125,-2.03125
1664985552774,-0.04711914,-0.8743286,0.08685303,1.8125,13.46875,-4.890625
1664985552818,0.0234375,-0.9077759,0.07928467,0.25,13.15625,6.265625
1664985552893,-0.09741211,-0.85894775,-0.006164551,0.546875,0.4375,4.8125
1664985552897,-0.20898438,-1.0266724,0.07318115,2.296875,-0.78125,-6.859375
1664985552967,-0.13378906,-1.1477661,0.04827881,4.65625,1.359375,-8.9375
1664985552971,-0.09716797,-1.2559204,-0.15142822,1.515625,-6.390625,-8.0
1664985553027,-0.118896484,-1.3757935,-0.0725708,1.28125,8.015625,-3.328125
1664985553057,0.1940918,-1.3626099,0.1642456,3.390625,-6.890625,-5.015625
1664985553091,-0.6628418,-0.88409424,-0.16339111,-5.8125,-5.515625,-3.96875
1664985553132,-0.421875,-0.78497314,-0.2793579,6.609375,25.96875,-13.234375
1664985553208,0.16748047,-1.177063,-0.058898926,6.578125,13.046875,-4.0625
1664985553215,-0.2775879,-1.2173462,-0.124816895,-3.265625,-0.15625,4.578125
1664985553253,-0.28857422,-0.89508057,-0.085510254,4.765625,4.796875,-0.875
1664985553282,-0.11816406,-0.8545532,-0.06817627,0.46875,6.296875,1.78125
1664985553328,-0.15966797,-0.8960571,-0.12530518,1.0625,-2.25,3.140625
1664985553375,-0.1899414,-0.87872314,-0.06451416,4.15625,0.078125,2.203125
1664985553406,-0.11401367,-0.723938,-0.101135254,0.046875,-0.75,4.171875
1664985553448,-0.27172852,-0.7268677,-0.11920166,-0.90625,-4.390625,3.6875
1664985553493,-0.078125,-0.93048096,0.06756592,1.09375,-7.5625,2.171875
1664985553521,-0.029296875,-0.694397,-0.06890869,-7.765625,-18.0625,7.109375
1664985553597,-0.44189453,-0.7908325,-0.061340332,-11.34375,-15.359375,4.984375
1664985553601,-0.3623047,-1.1975708,0.031921387,-3.125,-9.203125,-6.09375
1664985553673,-0.03100586,-0.7805786,-0.015197754,-11.109375,-11.015625,1.046875
1664985553687,-0.27124023,-1.008606,-0.012756348,-13.984375,-2.828125,10.296875
1664985553720,0.063964844,-1.6795044,0.09564209,-8.0,3.65625,9.8125
1664985553761,-0.009765625,-1.0774536,-0.14849854,-5.203125,-16.96875,2.0
1664985553808,-0.11987305,-1.3916626,0.07318115,9.625,12.546875,-11.640625
1664985553839,0.22729492,-1.3621216,0.15765381,-7.671875,6.09375,3.65625
1664985553882,-0.123046875,-1.0549927,0.07684326,-2.203125,-4.875,12.3125
1664985553926,-0.19042969,-0.9390259,0.018249512,4.34375,-0.84375,7.359375
1664985553959,0.19140625,-0.9421997,0.09637451,-0.09375,-1.125,9.90625
1664985554002,-0.053466797,-0.9771118,0.0758667,3.6875,-2.328125,8.703125
1664985554032,-0.053466797,-0.8440552,0.09320068,4.828125,-4.3125,5.25
1664985554078,0.01928711,-0.7918091,0.042907715,5.015625,0.890625,4.25
1664985554127,-0.06518555,-0.8496704,0.062194824,6.28125,3.46875,1.703125
1664985554153,-0.052734375,-0.8460083,0.14569092,6.46875,2.3125,2.796875
1664985554197,-0.11425781,-0.802063,0.05340576,3.046875,3.921875,-2.9375
1664985554242,-0.05493164,-0.8999634,0.089538574,4.71875,5.40625,-7.0
1664985554273,-0.068847656,-0.7476196,-0.0020141602,8.421875,-0.53125,-5.171875
1664985554349,-0.15258789,-0.91851807,0.097595215,-2.71875,12.546875,-2.1875
1664985554355,0.0036621094,-1.1521606,0.10247803,7.296875,5.609375,-10.328125
1664985554422,-0.11010742,-1.06427,0.22137451,1.34375,5.328125,-11.984375
1664985554439,-0.34204102,-1.1765747,0.25653076,-5.53125,-0.328125,-21.46875
1664985554467,-0.22729492,-1.1072388,-0.11212158,0.640625,-10.84375,-25.9375
1664985554532,0.15478516,-1.3430786,0.08465576,-14.171875,-4.03125,-18.65625
1664985554560,-0.018310547,-1.2156372,-0.08673096,6.5625,-15.765625,-10.296875
1664985554586,-0.37329102,-0.7024536,-0.1831665,5.09375,-11.34375,-0.09375
1664985554635,-0.25610352,-1.1052856,-0.15509033,6.359375,-0.96875,-5.46875
1664985554680,-0.16748047,-1.2654419,-0.15460205,3.4375,-2.078125,-4.28125
1664985554709,-0.1694336,-1.0562134,-0.051086426,4.0,-1.40625,-0.234375
1664985554752,-0.22314453,-0.97540283,-0.043273926,9.1875,1.5,1.8125
1664985554783,-0.23022461,-0.8599243,-0.08258057,5.8125,0.765625,4.625
1664985554830,-0.1784668,-0.8257446,-0.07623291,3.53125,0.0625,4.578125
1664985554873,-0.15722656,-0.819397,-0.082092285,4.6875,-1.515625,4.53125
1664985554904,-0.15942383,-0.7630005,-0.07598877,4.828125,-3.984375,4.421875
1664985554950,-0.11987305,-0.6795044,-0.0791626,1.40625,-9.21875,6.171875
1664985554992,-0.24731445,-0.798645,-0.045715332,0.4375,-10.71875,5.609375
1664985555022,-0.20825195,-0.7962036,-0.09234619,-7.90625,-13.0,2.671875
1664985555097,-0.20996094,-0.7427368,-0.113098145,-5.171875,-22.65625,7.984375
1664985555101,-0.15551758,-1.0046997,0.018737793,-3.09375,-11.75,18.3125
1664985555174,-0.33911133,-1.0935669,-0.019348145,-15.953125,-19.96875,0.546875
1664985555192,-0.35888672,-1.453186,0.05340576,-18.4375,-3.703125,3.546875
1664985555219,0.22949219,-1.4788208,-0.04547119,-9.40625,9.359375,12.28125
1664985555279,0.017333984,-0.878479,-0.08453369,-8.765625,-17.796875,6.234375
1664985555312,-0.19384766,-1.3460083,0.1642456,-0.953125,9.203125,11.28125
1664985555339,-0.034179688,-1.02594,-5.493164E-4,5.578125,-4.625,-7.203125
1664985555383,0.032714844,-0.9241333,0.058532715,-5.171875,18.921875,5.328125
1664985555411,0.02709961,-1.2688599,0.11859131,-4.234375,-5.375,7.0625
1664985555457,-0.052734375,-1.003479,0.04119873,2.03125,2.203125,1.671875
1664985555502,-0.037353516,-0.76397705,0.022644043,1.46875,4.859375,0.421875
1664985555532,0.048095703,-0.9456177,0.1383667,-0.828125,6.21875,2.453125
1664985555576,-0.084472656,-0.864563,0.09881592,0.1875,6.671875,-0.15625
1664985555622,-0.11035156,-0.6482544,0.0065307617,1.53125,6.515625,-0.03125
1664985555657,0.017333984,-0.7888794,0.16571045,2.46875,18.265625,-0.34375
1664985555698,-0.043701172,-0.81378174,0.07513428,1.625,4.03125,-1.734375
1664985555772,-0.12792969,-0.72198486,0.039001465,-0.546875,7.15625,-3.328125
1664985555778,-0.06640625,-1.0440063,0.18426514,9.34375,5.65625,-7.109375
1664985555847,-0.07739258,-0.9404907,0.097351074,4.125,-2.4375,-8.25
1664985555852,-0.14355469,-1.0784302,0.24847412,4.390625,8.140625,-9.703125
1664985555907,-0.21435547,-1.2229614,0.07879639,7.734375,0.515625,-10.796875
1664985555941,0.0637207,-1.3926392,0.031188965,-0.515625,-6.921875,-13.171875
1664985555968,0.041259766,-1.2017212,-0.086242676,8.3125,-7.90625,5.0625
1664985556011,-0.19873047,-0.8899536,-0.14923096,10.140625,-12.46875,3.03125
1664985556058,-0.39501953,-1.1826782,-0.20684814,3.265625,-4.875,-3.78125
1664985556090,0.079833984,-1.2888794,-0.08331299,11.578125,2.078125,-3.0
1664985556134,-0.2709961,-1.1375122,-0.085510254,2.828125,-3.109375,2.546875
1664985556161,-0.21777344,-0.96710205,-0.10406494,6.953125,-0.90625,-6.578125
1664985556207,-0.11401367,-0.84332275,-0.09112549,6.796875,-0.84375,0.328125
1664985556254,-0.1303711,-0.8369751,-0.12774658,7.203125,-2.25,-1.328125
1664985556281,-0.099365234,-0.88238525,-0.101867676,4.328125,-5.390625,0.1875
1664985556327,-0.18237305,-0.8850708,-0.1494751,3.296875,-4.609375,0.6875
1664985556374,-0.16235352,-0.7371216,-0.03717041,5.46875,-8.1875,-1.4375
1664985556404,-0.1640625,-0.8311157,-0.13018799,-7.390625,-8.53125,-1.140625
1664985556446,-0.08935547,-0.98223877,-0.039123535,-11.015625,-13.4375,-3.03125
1664985556523,-0.19262695,-0.7317505,0.007507324,-12.75,-20.671875,6.484375
1664985556529,-0.5202637,-0.8245239,-0.16583252,-15.859375,-9.515625,8.640625
1664985556597,-0.1887207,-1.196106,0.028015137,-11.671875,-10.109375,-11.75
1664985556601,-0.24731445,-0.93756104,-0.05718994,-17.546875,-7.15625,10.78125
1664985556672,-0.22070312,-1.366272,-0.055236816,-10.59375,9.859375,5.453125
1664985556686,0.1977539,-1.0886841,0.11834717,5.203125,3.4375,15.546875
1664985556719,-0.18823242,-0.9859009,-0.04425049,1.421875,0.1875,19.671875
1664985556762,-0.032470703,-1.194397,0.070495605,7.25,2.59375,2.34375
1664985556808,0.10253906,-0.9981079,-0.006652832,-2.96875,-1.40625,3.5
1664985556838,-0.013183594,-1.2935181,0.13812256,1.109375,9.40625,9.859375
1664985556883,-0.111572266,-1.1726685,0.09246826,1.140625,-4.6875,4.140625
1664985556914,-0.017333984,-0.9053345,0.08929443,1.34375,-3.015625,-3.609375
1664985556957,9.765625E-4,-0.9192505,0.020935059,-0.96875,-2.375,-1.640625
1664985557039,-0.0769043,-0.8164673,0.08538818,3.671875,-0.578125,-2.890625
1664985557044,-0.22290039,-0.65167236,-0.020324707,8.890625,10.421875,-8.5
1664985557078,0.095214844,-0.7564087,0.035339355,1.71875,20.765625,-0.84375
1664985557124,-0.021972656,-0.8045044,0.14837646,2.078125,7.75,-5.015625
1664985557153,-0.27978516,-0.7017212,-0.045959473,6.234375,8.78125,-9.9375
1664985557228,0.02709961,-0.8208618,0.06512451,8.328125,16.953125,-7.0
1664985557232,-0.123535156,-0.9534302,0.11517334,5.515625,2.65625,-7.125
1664985557303,-0.3293457,-0.93634033,0.08001709,10.25,15.859375,-10.78125
1664985557317,-0.21948242,-1.2449341,-0.058654785,12.203125,11.421875,-14.890625
1664985557350,0.028808594,-1.4380493,-0.08331299,-5.28125,4.890625,-8.734375
1664985557391,0.1159668,-1.359436,-0.12506104,-3.1875,-2.4375,1.8125
1664985557437,-0.43041992,-1.3057251,-0.13018799,0.515625,2.84375,2.46875
1664985557467,-0.18725586,-1.1707153,-0.11431885,2.296875,17.734375,-10.859375
1664985557514,-0.10424805,-1.130188,-0.027404785,6.828125,10.015625,-1.375
1664985557597,-0.11816406,-1.0991821,-0.12628174,1.921875,8.421875,-1.0625
1664985557601,-0.10864258,-0.9492798,-0.058166504,7.84375,8.671875,2.34375
1664985557633,-0.13598633,-0.8604126,-0.10992432,5.828125,4.953125,3.546875
1664985557663,-0.1472168,-0.9182739,-0.108947754,4.375,1.4375,3.453125
1664985557706,-0.111572266,-0.8753052,-0.07281494,4.640625,-1.578125,1.484375
1664985557755,-0.1743164,-0.8164673,-0.08013916,2.375,-0.9375,-1.953125
1664985557782,-0.16333008,-0.8115845,-0.066223145,-1.359375,-2.25,-0.40625
1664985557831,-0.11254883,-0.8115845,-0.0256958,-2.5625,-2.59375,1.921875
1664985557872,-0.20996094,-0.737854,0.0038452148,-3.5625,-5.640625,1.515625
1664985557902,-0.20385742,-0.7053833,-0.051330566,-5.109375,-5.65625,2.21875
1664985557976,-0.16064453,-0.8987427,-0.06036377,-5.890625,-6.5,4.5625
1664985557981,-0.076660156,-1.029602,0.097595215,-4.59375,-8.75,5.625
1664985558052,-0.5476074,-1.0200806,0.016052246,-15.0625,-9.171875,-4.4375
1664985558068,-0.2553711,-1.2996216,-0.028625488,-9.84375,9.8125,-4.296875
1664985558099,0.29101562,-1.4336548,0.02508545,-10.1875,5.140625,10.75
1664985558143,-0.17895508,-0.98516846,-0.12554932,-11.8125,-16.015625,4.578125
1664985558188,-0.19165039,-1.173645,0.062194824,7.234375,13.5625,3.078125
1664985558219,0.08642578,-1.1726685,0.08123779,3.640625,-4.625,5.828125
1664985558262,-0.10595703,-1.1174927,0.0692749,-4.5625,-1.46875,8.109375
1664985558292,-0.1352539,-1.1455688,0.019226074,-0.09375,-5.390625,2.8125
1664985558367,-0.07373047,-0.9981079,0.07147217,3.703125,-3.25,-0.453125
1664985558381,-0.1184082,-0.84625244,0.043884277,2.90625,-2.5,-0.015625
1664985558415,-0.068359375,-0.8804321,0.05731201,2.734375,1.421875,-0.953125
1664985558457,-0.033447266,-0.9397583,0.09686279,0.6875,0.71875,0.921875
1664985558505,-0.10839844,-0.8284302,0.059265137,1.1875,1.1875,0.859375
1664985558535,-0.09399414,-0.7383423,0.085632324,1.390625,6.234375,3.0625
1664985558577,-0.16113281,-0.7559204,0.124938965,3.59375,7.234375,-2.484375
1664985558670,-0.118896484,-0.69854736,0.035827637,6.65625,8.40625,-6.703125
1664985558675,0.0,-0.8152466,0.14837646,6.828125,9.015625,-3.40625
1664985558698,-0.061523438,-0.9483032,0.04949951,3.796875,0.265625,-3.828125
1664985558726,-0.15405273,-0.9780884,0.18548584,2.046875,-2.0625,-6.8125
1664985558802,-0.28393555,-1.1106567,0.12713623,5.125,-4.265625,-7.421875
1664985558816,-0.2529297,-1.1841431,-0.0025024414,2.484375,-5.6875,-16.5625
1664985558849,0.01171875,-1.3457642,-0.045959473,-4.109375,-3.59375,-7.640625
1664985558893,0.048095703,-1.5252075,-0.085754395,3.4375,-17.578125,-2.875
1664985558938,-0.54541016,-1.09552,-0.15484619,9.203125,-13.1875,-7.8125
1664985558966,-0.31420898,-1.0366821,-0.2053833,4.875,11.421875,-10.890625
1664985559016,0.0026855469,-1.2478638,-0.04864502,3.515625,4.390625,-2.953125
1664985559042,-0.23120117,-0.9282837,-0.13287354,5.953125,8.921875,0.953125
1664985559088,-0.28320312,-0.87945557,-0.1572876,7.3125,3.640625,-1.40625
1664985559133,-0.1340332,-0.8430786,-0.117492676,6.65625,4.9375,1.828125
1664985559162,-0.14428711,-0.79034424,-0.11627197,5.03125,4.984375,2.890625
1664985559207,-0.16674805,-0.7984009,-0.12310791,2.671875,4.0,3.828125
1664985559253,-0.140625,-0.8027954,-0.07598877,7.796875,0.3125,5.5
1664985559282,-0.026611328,-0.69195557,-0.085754395,0.515625,-10.34375,7.3125
1664985559327,-0.1965332,-0.85479736,0.012634277,2.6875,-11.203125,17.0
1664985559372,-0.3322754,-0.989563,-0.070373535,-3.078125,-13.234375,7.40625
1664985559405,-0.022705078,-0.784729,-0.0071411133,-5.546875,-15.65625,8.03125
1664985559479,-0.20117188,-0.8779907,-0.019836426,-7.609375,-9.5625,15.90625
1664985559484,-0.27270508,-1.1502075,-0.012756348,-13.25,-10.4375,5.0625
1664985559552,-0.078125,-1.0317993,0.07904053,-5.046875,-6.390625,4.796875
1664985559567,-0.21850586,-1.0996704,-0.18218994,-19.515625,3.046875,5.625
1664985559597,0.17480469,-1.3352661,-0.051330566,-2.375,-2.984375,-1.46875
1664985559657,-0.03466797,-1.5444946,0.08660889,0.453125,12.5625,7.609375
1664985559688,-0.19335938,-1.2139282,-0.10699463,-5.359375,-8.671875,0.765625
1664985559720,0.0017089844,-1.1104126,0.00970459,0.65625,0.8125,0.765625
1664985559764,-0.026123047,-1.0889282,0.02532959,-0.59375,2.3125,4.515625
1664985559795,-0.2175293,-0.8230591,0.012878418,3.625,-6.109375,-4.8125
1664985559843,0.031982422,-0.7334595,-0.011047363,-0.453125,2.203125,-5.71875
1664985559882,-0.06298828,-0.90338135,0.06756592,2.6875,7.6875,0.515625
1664985559912,-0.10839844,-0.8057251,-0.010803223,2.8125,6.890625,0.734375
1664985559958,0.08178711,-0.9446411,0.18182373,-1.703125,15.03125,5.859375
1664985560001,-0.16821289,-0.99224854,0.06878662,3.1875,3.59375,1.875
1664985560033,-0.27441406,-0.6724243,0.028503418,11.34375,10.28125,-7.96875
1664985560115,0.104003906,-0.8308716,0.10418701,15.3125,20.625,3.265625
1664985560121,0.03149414,-1.0488892,0.1618042,11.78125,-1.65625,4.296875
1664985560183,-0.29614258,-0.83721924,0.00579834,14.796875,-2.546875,-4.890625
1664985560198,-0.07861328,-0.7720337,0.058288574,9.5,11.96875,-5.546875
1664985560231,-0.11254883,-0.9060669,-0.023498535,8.5,13.15625,-5.546875
1664985560289,0.0031738281,-1.286438,0.02947998,-2.75,1.46875,-10.328125
1664985560318,-0.14550781,-1.4944458,-0.30499268,-2.71875,0.9375,-4.75
1664985560348,-4.8828125E-4,-1.1484985,-0.3616333,11.21875,5.484375,2.890625
1664985560393,-0.28637695,-1.3538208,-0.3196411,4.46875,5.03125,-5.796875
1664985560436,-0.061767578,-1.1990356,-0.03253174,10.71875,-1.28125,-11.53125
1664985560466,-0.24560547,-0.8989868,-0.061828613,0.765625,0.671875,0.703125
1664985560514,-0.38549805,-0.8218384,-0.31011963,-1.875,2.03125,-6.375
1664985560543,0.15014648,-1.1091919,-0.0881958,7.640625,8.21875,-3.734375
1664985560591,-0.20361328,-0.8604126,-0.21295166,1.90625,-6.796875,3.34375
1664985560630,-0.29760742,-0.881897,-0.17803955,4.609375,1.640625,-6.828125
1664985560660,-0.05834961,-0.9890747,-0.09527588,4.390625,-0.921875,1.59375
1664985560706,-0.35595703,-0.923645,-0.13946533,-1.453125,0.0,-0.6875
1664985560751,-0.24536133,-0.93536377,-0.13726807,-2.796875,1.78125,-5.53125
1664985560781,-0.12158203,-0.85894775,-0.10992432,-4.28125,1.625,1.0
1664985560828,-0.23339844,-0.8496704,-0.10455322,-4.546875,-0.6875,-1.28125
1664985560859,-0.17822266,-0.7896118,-0.074279785,-6.046875,-0.65625,1.9375
1664985560934,-0.1508789,-0.7632446,-0.0335083,-4.46875,-7.53125,6.03125
1664985560950,-0.17089844,-0.88116455,-0.06866455,-10.03125,-1.578125,7.015625
1664985560978,-0.3947754,-1.0755005,-7.9345703E-4,-6.0625,-4.921875,0.859375
1664985561054,-0.19506836,-0.9212036,-0.097229004,-7.578125,-10.703125,-1.5
1664985561075,-0.47143555,-1.1060181,0.08319092,-17.015625,-3.296875,-3.796875
1664985561098,-0.42407227,-1.2009888,-0.050598145,-18.21875,0.84375,-10.515625
1664985561142,0.16772461,-1.086731,-0.17999268,-11.46875,0.6875,6.015625
1664985561188,0.07739258,-1.2798462,0.07244873,-14.71875,-2.046875,12.9375
1664985561219,-0.20483398,-0.9336548,-0.06768799,-5.328125,-2.625,11.421875
1664985561262,-0.026123047,-1.0327759,0.043151855,5.796875,6.53125,8.59375
1664985561338,-0.09008789,-1.0586548,0.09637451,5.140625,4.09375,4.484375
1664985561344,-0.106933594,-1.0593872,0.015075684,1.34375,13.375,11.5
1664985561383,0.080566406,-1.1109009,0.05340576,1.546875,6.609375,13.40625
1664985561413,-0.040283203,-1.0669556,0.109069824,1.328125,2.171875,9.96875
1664985561456,-0.13427734,-0.8831177,0.08319092,7.078125,1.96875,6.34375
1664985561503,-0.103271484,-0.8045044,-0.032043457,4.015625,8.75,3.4375
1664985561533,0.05517578,-0.96661377,0.09857178,6.375,14.140625,4.625
1664985561607,-0.0087890625,-1.0083618,0.09490967,1.390625,2.890625,5.3125
1664985561613,-0.09667969,-0.7883911,0.08001709,4.78125,5.421875,1.3125
1664985561681,-0.12597656,-0.736145,0.015808105,8.203125,6.59375,-4.515625
1664985561697,0.029296875,-0.8093872,0.070007324,5.734375,6.0,-5.515625
1664985561727,-0.023925781,-0.8167114,0.039733887,6.703125,5.203125,-1.109375
1664985561772,-0.048095703,-0.8670044,0.109802246,7.875,-0.375,-3.90625
1664985561817,-0.1899414,-0.87457275,0.027282715,3.4375,-1.921875,-7.859375
1664985561848,-0.12207031,-1.1836548,0.25482178,-2.40625,10.578125,-11.640625
1664985561895,-0.34155273,-1.0779419,-0.031311035,7.671875,1.25,-20.0625
1664985561923,0.16381836,-1.1333618,-0.051818848,-10.40625,9.421875,-16.40625
1664985561967,0.10571289,-1.704895,-0.007873535,-3.8125,-10.359375,-1.46875
1664985562015,-0.31420898,-0.9295044,-0.2312622,12.859375,-6.75,2.5
1664985562042,-0.23901367,-0.88653564,-0.25250244,-2.328125,10.21875,-3.265625
1664985562088,0.06591797,-1.5650024,-0.039855957,-2.65625,4.28125,-8.3125
1664985562166,-0.123046875,-1.1370239,-0.043518066,9.03125,-4.796875,7.8125
1664985562173,-0.1965332,-0.8699341,-0.10797119,5.578125,-3.15625,-2.53125
1664985562207,-0.18896484,-0.9221802,-0.0947876,6.109375,-4.34375,-2.59375
1664985562254,-0.114746094,-0.8357544,-0.10699463,0.921875,-3.15625,-1.375
1664985562282,-0.091308594,-0.82476807,-0.113342285,4.75,-7.640625,-0.5
1664985562356,-0.13793945,-0.81817627,-0.09283447,2.765625,-7.125,1.125
1664985562362,-0.11230469,-0.706604,-0.05230713,-0.59375,-9.484375,-1.953125
1664985562432,-0.20385742,-0.73760986,-0.059143066,-8.59375,-9.75,0.65625
1664985562449,-0.3540039,-1.0071411,-0.018859863,-10.734375,-9.875,-4.15625
1664985562492,-0.103759766,-0.6836548,-0.0037231445,-11.421875,-11.5,-5.65625
1664985562522,-0.28100586,-0.82159424,-0.04107666,-6.453125,-7.109375,9.765625
1664985562567,-0.29345703,-1.1560669,0.07952881,-8.5,-6.828125,-2.3125
1664985562601,-0.22827148,-0.99346924,4.272461E-4,-17.125,-0.515625,2.28125
1664985562643,-0.36791992,-1.3206177,0.059020996,-21.015625,16.453125,3.046875
1664985562673,0.059326172,-1.3062134,-0.003967285,-16.375,16.328125,7.96875
1664985562717,0.08935547,-0.95318604,0.06732178,2.546875,8.625,6.890625
1664985562762,-0.16137695,-1.178772,0.070739746,-4.3125,3.140625,6.78125
1664985562792,0.18530273,-1.4160767,0.24163818,0.140625,9.265625,9.859375
1664985562840,-0.08642578,-0.89190674,-7.9345703E-4,2.921875,-6.578125,10.609375
1664985562882,-0.1274414,-0.8772583,0.12420654,1.046875,11.359375,7.328125
1664985562912,0.0793457,-1.140686,0.13543701,2.4375,5.09375,11.734375
1664985562958,-0.13916016,-0.85479736,0.08392334,3.171875,-1.4375,-0.6875
1664985563032,-0.107421875,-0.6890259,0.054626465,6.5625,11.84375,-1.375
1664985563038,0.05444336,-0.7012329,0.06707764,4.65625,11.296875,3.96875
1664985563108,-0.005126953,-0.7727661,0.14715576,4.890625,13.984375,3.09375
1664985563113,-0.064697266,-0.7227173,0.09661865,8.484375,3.84375,-1.4375
1664985563153,0.06958008,-0.6802368,0.02142334,3.84375,3.296875,2.6875
1664985563198,0.044189453,-1.1165161,0.25946045,0.4375,3.609375,2.71875
1664985563230,-0.20043945,-1.1494751,0.30389404,6.25,-7.40625,-7.875
1664985563272,-0.18920898,-0.9824829,-0.10211182,13.34375,-6.46875,-11.734375
1664985563318,0.24731445,-1.6690063,-0.05645752,-1.34375,-10.171875,-9.03125
1664985563355,0.14672852,-1.4651489,-0.027648926,2.296875,-24.703125,3.234375
1664985563423,-0.6694336,-0.96588135,-0.2276001,7.53125,-11.015625,1.546875
1664985563429,-0.056884766,-0.93414307,-0.09674072,6.765625,22.359375,-15.53125
1664985563483,0.095703125,-1.3716431,-0.1375122,5.90625,3.5625,-3.65625
1664985563511,-0.13427734,-1.0288696,-0.13970947,7.3125,-1.09375,-2.140625
1664985563541,-0.12963867,-0.90093994,-0.03326416,9.46875,2.5,0.828125
1664985563589,-0.09082031,-0.7769165,-0.16534424,8.75,-0.296875,0.9375
1664985563634,-0.12646484,-0.93536377,-0.077697754,10.828125,-1.609375,-0.15625
1664985563665,-0.037597656,-0.8428345,-0.082336426,8.546875,-1.9375,1.921875
1664985563708,-0.17553711,-0.8899536,-0.17559814,2.328125,-10.546875,-0.015625
1664985563738,-0.18139648,-0.9319458,0.010681152,1.8125,-2.25,-0.96875
1664985563814,0.041748047,-0.6331177,-0.053771973,3.28125,-8.984375,-4.109375
1664985563828,-0.5097656,-0.8418579,-0.046936035,-10.109375,-6.21875,3.15625
1664985563860,-0.05883789,-1.1072388,-0.0012817383,-8.21875,-1.125,-5.515625
1664985563933,-0.11206055,-0.8648071,-0.0413208,-11.625,-11.453125,3.984375
1664985563955,-0.37280273,-0.9143677,-0.0025024414,-15.71875,-8.453125,-1.671875
1664985563977,-0.21606445,-1.2383423,0.074401855,-12.96875,-5.078125,0.578125
1664985564024,-0.20898438,-1.031311,0.006286621,-14.875,-1.953125,0.546875
1664985564068,-0.17529297,-1.1663208,-0.07720947,-3.953125,1.53125,5.765625
1664985564098,0.1538086,-1.2329712,-0.10626221,-1.734375,-0.140625,7.71875
1664985564143,0.1159668,-0.79815674,0.0033569336,1.25,-9.015625,11.5
1664985564174,-0.16625977,-1.0300903,0.008728027,0.984375,-5.96875,8.15625
1664985564217,0.072753906,-1.4129028,0.1395874,2.671875,2.1875,-1.40625
1664985564263,0.045654297,-1.0454712,-0.038879395,1.6875,-8.375,6.5
1664985564294,-0.11035156,-0.8279419,0.012145996,-0.09375,1.796875,5.171875
1664985564337,0.104003906,-1.1157837,0.1774292,5.859375,4.53125,5.625
1664985564382,-0.032714844,-0.94195557,0.062438965,0.96875,-2.546875,6.25
1664985564412,-0.10205078,-0.6799927,0.011413574,3.65625,1.015625,-1.125
1664985564457,0.024169922,-0.76763916,0.06414795,5.0,10.765625,-2.890625
1664985564489,-0.01928711,-0.62457275,0.09906006,4.78125,5.671875,-6.109375
1664985564563,-0.16015625,-0.7473755,0.049743652,4.03125,20.234375,-6.53125
1664985564581,0.080566406,-0.9746704,0.010437012,13.28125,17.53125,-7.0
1664985564609,0.13916016,-0.9534302,0.13079834,5.375,3.1875,-8.90625
1664985564666,-0.19018555,-1.2363892,0.18109131,4.3125,6.6875,-0.734375
1664985564697,-0.2849121,-0.9837036,-0.029846191,9.71875,0.8125,-12.640625
1664985564727,0.12109375,-1.263977,-0.02960205,-2.625,7.84375,-9.375
1664985564773,0.19067383,-1.692688,-0.026184082,-0.078125,-4.3125,-2.640625
1664985564804,-0.28588867,-1.0403442,-0.11236572,13.359375,-13.0,1.125
1664985564849,-0.53027344,-0.9456177,-0.30059814,-9.0,10.1875,-9.375
1664985564894,0.15795898,-1.4309692,-0.13433838,4.171875,6.671875,-13.046875
1664985564923,-0.0871582,-1.1350708,-0.07159424,10.5,-1.3125,7.203125
1664985564967,-0.24047852,-0.79571533,-0.16192627,3.984375,-0.796875,-1.390625
1664985565012,-0.119628906,-0.8989868,-0.12188721,9.234375,1.546875,-0.921875
1664985565043,-0.13623047,-0.81451416,-0.13482666,5.625,0.46875,2.15625
1664985565088,-0.13793945,-0.74176025,-0.1428833,4.03125,-1.734375,-1.671875
1664985565135,-0.11254883,-0.6897583,-0.09698486,5.765625,-1.921875,1.15625
1664985565164,-0.20605469,-0.77593994,-0.13946533,-0.828125,-1.5625,5.8125
1664985565237,-0.13696289,-0.75982666,-0.006164551,1.109375,1.4375,4.0
1664985565242,-0.18579102,-0.661438,-0.1026001,-4.578125,-5.09375,8.75
1664985565312,-0.3552246,-1.2019653,-0.10015869,-16.890625,4.265625,5.734375
1664985565327,-0.23413086,-1.4819946,0.11859131,-5.5,0.28125,-3.140625
1664985565359,-0.059326172,-0.9246216,0.11444092,-13.5,-10.546875,4.1875
1664985565403,-0.18432617,-0.95196533,-0.117492676,-19.484375,-15.25,1.328125
1664985565448,-0.20019531,-1.3865356,0.011413574,-6.6875,-3.0625,2.4375
1664985565480,0.171875,-0.9265747,-0.026672363,-6.0,-1.640625,0.90625
1664985565524,0.087402344,-0.8804321,-0.08135986,-8.625,-4.78125,1.234375
1664985565552,-0.1459961,-1.3340454,0.055847168,-2.140625,3.5,9.015625
1664985565600,0.0056152344,-1.2363892,0.05682373,-1.96875,0.15625,1.328125
1664985565641,-0.14501953,-0.9807739,-0.040100098,0.4375,2.3125,3.375
1664985565671,-0.019042969,-1.0681763,0.07757568,0.828125,7.15625,4.171875
1664985565717,0.04272461,-1.0681763,0.121276855,-1.4375,4.15625,2.1875
1664985565762,-0.08642578,-0.89630127,0.07342529,-3.1875,-0.671875,-0.578125
1664985565796,-0.04296875,-0.8621216,0.093933105,-3.796875,-6.828125,-4.71875
1664985565838,0.023925781,-0.82818604,0.11444092,-0.8125,-8.34375,-5.09375
1664985565882,-0.048828125,-0.72906494,0.11468506,-3.8125,-5.234375,-3.734375
1664985565912,-0.14697266,-0.704895,0.14959717,-2.875,-2.421875,-6.453125
1664985565989,-0.16137695,-0.73223877,0.07904053,-9.25,-3.875,-6.375
1664985565995,-0.072509766,-0.8208618,0.30145264,-1.296875,-3.90625,-8.71875
1664985566063,-0.5053711,-0.8218384,0.07122803,-2.4375,-3.34375,-10.328125
1664985566078,-0.1550293,-1.0354614,0.45526123,-5.421875,13.125,-18.09375
1664985566109,-0.45898438,-1.0161743,0.25042725,2.765625,-7.875,-17.015625
1664985566154,-0.37646484,-0.81817627,0.5206909,6.515625,2.6875,-28.71875
1664985566200,-0.30419922,-1.1504517,0.58465576,4.96875,-19.515625,-21.359375
1664985566232,-0.58032227,-0.98638916,0.32073975,3.875,-1.25,-22.1875
1664985566272,-0.6496582,-1.3386841,-0.2510376,6.84375,39.5,-27.890625
1664985566303,0.7390137,-1.7002563,-0.60601807,5.65625,-9.5,14.984375
1664985566352,-0.2421875,-1.5386353,-0.14263916,10.78125,-10.125,3.078125
1664985566392,-0.63671875,-1.1919556,-0.30718994,5.546875,1.359375,8.046875
1664985566423,0.015380859,-1.0872192,-0.054992676,15.171875,3.640625,-2.640625
1664985566467,-0.17407227,-1.024231,0.050476074,-4.6875,-7.84375,10.40625
1664985566515,-0.40942383,-0.8267212,-0.20025635,-5.65625,-12.859375,-6.125
1664985566546,0.080078125,-0.7839966,-0.06036377,4.59375,-13.0625,-2.625
1664985566594,-0.2619629,-0.8208618,-0.046203613,3.890625,-13.890625,2.3125
1664985566617,-0.37670898,-0.7620239,-0.038635254,5.140625,-17.296875,-2.703125
1664985566692,-0.092285156,-0.7612915,-0.020080566,0.6875,-22.6875,0.046875
1664985566707,-0.3125,-0.8040161,-0.047668457,-3.578125,-16.0625,-1.1875
1664985566740,-0.3935547,-0.78863525,-0.0647583,-3.296875,-26.875,-7.59375
1664985566812,-0.21704102,-0.7991333,0.17547607,-10.734375,-10.390625,2.703125
1664985566835,-0.7404785,-0.9873657,-0.13922119,-18.9375,-23.671875,-13.0
1664985566857,-0.03100586,-0.89923096,0.3192749,-12.484375,-3.6875,6.203125
1664985566903,-0.6015625,-1.1514282,0.05340576,-10.875,-9.296875,4.078125
1664985566979,-0.8996582,-1.2437134,0.27093506,-7.78125,-13.96875,8.5
1664985566984,-0.36279297,-1.0466919,0.08343506,-12.015625,7.796875,9.28125
1664985567023,-0.58203125,-1.0291138,-0.042541504,6.4375,-17.078125,14.984375
1664985567056,-0.33520508,-1.2324829,0.22796631,20.890625,24.734375,25.96875
1664985567096,0.030029297,-1.0454712,-0.038146973,23.59375,15.953125,30.828125
1664985567145,0.20483398,-1.0598755,-0.37750244,8.703125,-9.5625,29.109375
1664985567177,0.20581055,-0.82403564,-0.25421143,21.359375,-2.515625,6.046875
1664985567218,0.35180664,-1.1165161,-0.09820557,9.828125,-6.078125,12.828125
1664985567294,-0.09887695,-1.0256958,-0.1194458,-0.453125,-8.890625,5.703125
1664985567298,0.020507812,-0.9500122,-0.14459229,3.09375,-2.375,-2.984375
1664985567338,0.19018555,-0.9192505,-0.10821533,1.953125,-3.96875,6.8125
1664985567370,-0.03173828,-0.9680786,-0.07110596,-1.515625,-6.71875,3.3125
1664985567444,-0.1171875,-0.90411377,-0.101623535,-6.03125,-4.953125,-3.59375
1664985567459,-0.08935547,-0.9536743,-0.06378174,-4.3125,9.578125,-9.5
1664985567491,-0.029785156,-0.9138794,0.003112793,-3.484375,10.5,-4.703125
1664985567552,-0.080078125,-0.7979126,-0.014221191,-8.921875,11.40625,-7.578125
1664985567577,-0.0703125,-0.8069458,-0.047180176,-8.84375,16.859375,-4.78125
1664985567606,0.044433594,-0.85723877,0.13372803,-9.015625,16.640625,-5.515625
1664985567653,-0.19189453,-0.7383423,-0.09869385,-7.328125,6.1875,-5.484375
1664985567698,-0.047607422,-0.71539307,0.13739014,-5.6875,25.890625,-1.109375
1664985567727,-0.15307617,-0.9421997,-0.004699707,-2.140625,16.015625,-4.46875
1664985567773,-0.14672852,-0.7815552,0.12347412,1.96875,19.09375,-6.875
1664985567804,-0.1850586,-0.9717407,0.06561279,5.09375,18.875,-9.515625
1664985567846,-0.06323242,-1.0588989,0.19110107,6.390625,17.5,-8.21875
1664985567894,-0.17211914,-1.1621704,0.22137451,2.265625,9.109375,-7.359375
1664985567923,-0.23242188,-1.1663208,-0.06768799,10.5,-11.265625,-8.078125
1664985567968,0.04248047,-1.2654419,-0.12945557,2.8125,2.046875,-1.75
1664985568013,0.026367188,-1.4231567,0.09222412,9.796875,-14.09375,9.671875
1664985568044,-0.86743164,-1.2437134,-0.18951416,0.25,-10.0,-1.0
1664985568088,-0.28833008,-1.0830688,-0.17633057,5.65625,24.6875,-8.0625
1664985568118,0.14453125,-1.1636353,-0.1375122,1.3125,1.984375,1.9375
1664985568162,-0.3569336,-0.92852783,-0.112854004,8.875,-1.125,2.4375
1664985568239,-0.22436523,-0.8477173,-0.057678223,9.0625,6.609375,-1.015625
1664985568246,-0.140625,-0.8928833,-0.09039307,4.5,2.828125,1.203125
1664985568313,-0.23608398,-0.9229126,-0.13092041,7.46875,3.5,6.09375
1664985568329,-0.13378906,-0.9121704,-0.101867676,6.4375,1.28125,2.859375
1664985568358,-0.22875977,-0.90631104,-0.08428955,4.59375,-0.6875,1.4375
1664985568405,-0.2421875,-0.8567505,-0.058898926,4.0625,1.96875,0.78125
1664985568431,-0.2697754,-0.86431885,-0.09967041,-2.8125,-0.34375,-0.28125
1664985568477,-0.28051758,-0.973938,-0.034240723,-2.78125,5.984375,-3.34375
1664985568554,-0.06958008,-0.83843994,-0.0029907227,-3.359375,-7.09375,-5.71875
1664985568568,-0.24438477,-0.7163696,-0.0491333,-10.828125,-14.140625,10.859375
1664985568598,-0.35229492,-0.9356079,-0.06573486,-7.53125,-3.40625,0.875
1664985568642,-0.18017578,-0.8899536,0.03265381,-5.71875,-10.984375,0.75
1664985568676,-0.203125,-0.8567505,0.007019043,-16.78125,-5.640625,12.703125
1664985568718,-0.5029297,-1.0686646,0.03729248,-10.5,-9.46875,-8.03125
1664985568762,-0.01953125,-0.9702759,0.06756592,-9.21875,7.671875,8.421875
1664985568792,-0.4506836,-1.6021118,-0.046691895,-14.421875,9.609375,3.59375
1664985568840,-0.13256836,-1.2637329,-0.00982666,3.390625,14.859375,-9.078125
1664985568871,0.38476562,-0.83599854,-0.05328369,2.390625,0.5625,3.953125
1664985568943,-0.22827148,-1.2737427,0.034606934,0.015625,-10.984375,11.1875
1664985568958,-0.2668457,-1.1651001,0.045837402,7.03125,3.28125,-3.59375
1664985568990,0.060302734,-0.8711548,-0.039367676,1.96875,5.015625,0.171875
1664985569047,-0.030273438,-0.94195557,0.046569824,-0.578125,1.46875,9.03125
1664985569078,-0.08959961,-0.9602661,0.057556152,1.25,-0.90625,8.109375
1664985569108,-0.10668945,-0.83184814,-0.04449463,3.65625,-0.734375,3.625
1664985569152,-0.0012207031,-0.925354,0.0060424805,2.21875,5.609375,1.859375
1664985569183,-0.06567383,-0.95196533,0.09661865,2.515625,2.0625,6.25
1664985569229,-0.12670898,-0.7962036,0.026062012,-2.90625,3.75,5.265625
1664985569274,-0.114990234,-0.8982544,0.105651855,5.109375,2.984375,1.203125
1664985569303,-0.08935547,-0.7649536,0.0067749023,3.609375,5.046875,-0.046875
1664985569348,0.045410156,-0.98809814,0.13372803,3.65625,7.578125,8.21875
1664985569390,-0.1262207,-1.0134888,0.059753418,6.953125,-8.015625,2.03125
1664985569423,-0.087646484,-0.87994385,0.11590576,4.0625,-4.203125,-1.03125
1664985569468,-0.24438477,-0.9480591,0.07489014,7.328125,-5.796875,-5.140625
1664985569511,-0.1875,-0.9470825,0.15814209,6.203125,2.921875,-9.1875
1664985569544,-0.15917969,-0.9817505,0.08782959,3.8125,1.140625,-8.84375
1664985569620,-0.1105957,-1.0923462,0.11834717,4.40625,-0.59375,-7.515625
1664985569692,-0.014160156,-1.3731079,0.0927124,0.21875,-7.1875,-7.484375
1664985569698,-0.18041992,-1.2276001,-0.23614502,4.015625,-12.234375,-0.75
1664985569708,-0.067871094,-1.2244263,-0.09820557,9.421875,-4.53125,-2.359375
1664985569736,-0.32470703,-1.0557251,-0.09552002,17.109375,-3.609375,0.6875
1664985569783,-0.09277344,-0.94537354,-0.1272583,-4.875,-0.53125,5.65625
1664985569860,-0.34594727,-1.2866821,-0.053771973,-0.84375,7.765625,-5.515625
1664985569866,-0.18896484,-1.0403442,-0.14019775,6.46875,6.28125,-3.15625
1664985569903,-0.1418457,-0.93829346,-0.10064697,6.53125,7.65625,-2.890625
1664985569932,-0.13134766,-0.9038696,-0.10064697,6.671875,2.984375,3.328125
1664985569977,-0.1694336,-0.87286377,-0.09210205,7.203125,3.0,5.796875
1664985570024,-0.16455078,-0.8718872,-0.13092041,6.40625,-1.859375,2.6875
1664985570060,-0.1899414,-0.86602783,-0.093322754,6.390625,-2.875,1.9375
1664985570100,-0.19384766,-0.8052368,-0.074035645,4.015625,-3.75,0.5
1664985570141,-0.1940918,-0.7385864,-0.06329346,3.734375,0.609375,-0.921875
1664985570172,-0.13452148,-0.5757446,-0.09991455,1.0625,-3.796875,-0.25
1664985570223,-0.24365234,-0.83673096,-0.06719971,-6.890625,-5.640625,2.0625
1664985570247,-0.42529297,-1.1157837,0.001159668,-11.484375,-0.40625,-0.578125
1664985570323,-0.35351562,-0.94488525,-0.0017700195,-15.46875,-4.59375,-2.125
1664985570339,-0.22436523,-0.80133057,-0.09674072,-21.03125,-0.34375,0.8125
1664985570368,-0.2956543,-1.3357544,-0.117492676,-14.578125,0.015625,-6.125
1664985570443,-0.3076172,-1.2615356,0.016784668,-0.96875,13.0,-1.03125
1664985570463,-0.04345703,-1.1870728,-0.08428955,-2.53125,16.84375,5.203125
1664985570487,0.06567383,-1.2407837,-0.12677002,-1.546875,-2.71875,0.640625
1664985570532,0.0625,-1.225647,0.09490967,5.671875,5.21875,8.671875
1664985570576,-0.15966797,-1.1118774,0.024841309,2.078125,1.578125,6.59375
1664985570609,-0.10424805,-1.0213013,-0.035461426,-0.78125,7.75,-0.375
1664985570652,0.10644531,-1.045227,0.034606934,0.890625,4.34375,5.5
1664985570682,-0.072021484,-0.90460205,-0.0015258789,3.28125,4.828125,7.4375
1664985570728,-0.06762695,-0.8274536,0.003112793,6.15625,5.90625,7.828125
1664985570773,0.036376953,-0.87677,0.007751465,4.734375,6.484375,8.6875
1664985570803,-0.052246094,-0.78497314,-0.026672363,2.859375,8.53125,7.875
1664985570852,-0.15014648,-0.7991333,0.09588623,10.671875,14.328125,4.890625
1664985570893,-0.06347656,-0.81451416,0.042175293,3.171875,13.625,-2.28125
1664985570922,0.032714844,-0.69781494,0.023132324,7.0,9.796875,-0.859375
1664985570968,-0.11303711,-0.87286377,-0.047668457,11.125,16.921875,4.0
1664985571000,0.07324219,-0.90289307,0.06317139,10.5625,7.421875,-3.453125
1664985571073,0.021240234,-1.0078735,-0.01739502,2.734375,-0.046875,-0.9375
1664985571090,-0.10473633,-1.1157837,0.16595459,-0.75,7.390625,-5.71875
1664985571118,-0.2409668,-1.1484985,-0.09185791,3.25,6.84375,-11.09375
1664985571197,0.05883789,-1.2175903,-0.16656494,-9.890625,5.015625,-5.875
1664985571221,0.12866211,-1.4341431,-0.1362915,-2.109375,-11.75,-1.171875
1664985571237,-0.30371094,-1.1975708,-0.22296143,-4.5625,-14.0,6.59375
1664985571282,-0.20654297,-1.1467896,-0.13018799,1.1875,-0.609375,-9.421875
1664985571329,-0.06640625,-1.2012329,-0.128479,0.375,-6.953125,0.21875
1664985571358,-0.21923828,-1.046936,-0.19976807,1.046875,-3.234375,-0.59375
1664985571402,-0.16894531,-0.95880127,-0.101135254,11.171875,2.625,-1.578125
1664985571433,-0.048828125,-0.7896118,-0.144104,2.75,-4.8125,0.015625
1664985571478,-0.17626953,-0.8274536,-0.07159424,6.46875,-3.28125,0.59375
1664985571525,-0.11450195,-0.81207275,-0.10723877,2.8125,-1.734375,1.109375
1664985571555,-0.0625,-0.7058716,-0.05279541,4.953125,-6.984375,1.171875
1664985571597,-0.06201172,-0.56988525,-0.09893799,2.25,-12.578125,4.421875
1664985571642,-0.16674805,-0.7300415,-0.09429932,-3.25,-18.421875,3.796875
1664985571671,-0.088378906,-0.80718994,-0.053771973,2.59375,-16.078125,3.578125
1664985571716,-0.3034668,-0.9763794,-0.10601807,-9.046875,-15.828125,2.71875
1664985571747,-0.15283203,-1.0134888,-0.015686035,-13.0,-10.328125,-3.921875
1664985571790,0.0078125,-1.0527954,-0.024963379,-4.765625,-14.9375,1.578125
1664985571867,-0.33618164,-1.3162231,-0.07305908,-18.578125,3.375,2.90625
1664985571872,0.16821289,-1.4385376,-0.09112549,-5.71875,-5.8125,-14.109375
1664985571942,-0.03540039,-1.3731079,-0.109436035,-6.953125,-2.015625,4.28125
1664985571957,-0.15698242,-1.3870239,-0.03741455,-1.1875,5.4375,-7.859375
1664985571990,-0.0031738281,-1.1411743,-0.002746582,-5.5,-0.578125,-3.34375
1664985572033,-0.13989258,-0.9290161,-0.004211426,0.328125,1.671875,-0.171875
1664985572062,-0.06640625,-0.85406494,0.015808105,1.15625,3.609375,1.8125
1664985572107,0.0021972656,-0.87506104,0.005065918,0.34375,3.203125,5.125
1664985572154,-0.030517578,-0.8435669,0.0045776367,1.765625,1.84375,5.53125
1664985572181,-0.063964844,-0.84942627,0.090026855,2.0625,5.796875,4.359375
1664985572226,-0.099609375,-0.8323364,-0.012268066,5.765625,5.390625,3.21875
1664985572272,-0.030761719,-0.71417236,0.013366699,5.578125,4.21875,0.578125
1664985572301,-0.02319336,-0.8916626,0.07879639,3.484375,11.578125,1.046875
1664985572348,-0.03100586,-0.83917236,0.031188965,10.53125,-0.375,-2.265625
1664985572424,-0.064453125,-0.6848755,-0.040100098,6.984375,-3.53125,-3.84375
1664985572428,-0.032470703,-0.98809814,0.1071167,7.890625,8.96875,-1.109375
1664985572469,-0.08276367,-1.0464478,0.010681152,9.65625,-6.453125,-9.921875
1664985572497,-0.012451172,-0.97491455,-0.08770752,-1.5,-9.984375,-4.015625
1664985572573,-0.0014648438,-1.2695923,-0.15167236,-9.71875,-19.171875,-5.96875
1664985572588,0.032714844,-1.4290161,-0.2041626,4.296875,-15.484375,2.109375
1664985572619,-0.19042969,-1.1704712,-0.190979,10.890625,-22.453125,1.328125
1664985572696,-0.37402344,-1.2024536,-0.18389893,-5.34375,-1.640625,-8.484375
1664985572712,-0.15722656,-1.2434692,-0.07647705,-3.734375,0.65625,-7.21875
1664985572738,-0.23242188,-1.1069946,-0.12823486,2.21875,1.4375,-9.171875
1664985572783,-0.1821289,-0.9885864,-0.13214111,1.25,2.78125,-5.265625
1664985572814,-0.1237793,-0.88604736,-0.120666504,1.234375,3.171875,-1.84375
1664985572858,-0.16210938,-0.8579712,-0.15997314,1.953125,3.171875,0.375
1664985572902,-0.09375,-0.9006958,-0.08770752,2.84375,0.609375,-1.140625
1664985572934,-0.16674805,-0.8694458,-0.085754395,1.0625,1.3125,0.375
1664985572978,-0.19018555,-0.80963135,-0.08917236,-0.65625,-3.09375,-0.46875
1664985573021,-0.14794922,-0.7493286,-0.07476807,-3.515625,-1.625,0.140625
1664985573051,-0.17529297,-0.7695923,-0.14190674,-1.390625,-2.3125,2.4375
1664985573101,-0.18920898,-0.8106079,-0.028869629,-9.421875,-7.796875,-1.5
1664985573126,-0.1381836,-0.7944946,0.024597168,-2.96875,-7.96875,3.65625
1664985573173,-0.32885742,-0.7739868,-0.04498291,-7.578125,-9.640625,7.015625
1664985573216,-0.27001953,-1.03302,-0.006164551,-12.34375,-5.984375,0.78125
1664985573247,-0.13989258,-0.91851807,-0.04107666,-6.65625,-10.515625,9.75
1664985573323,-0.3046875,-1.1314087,-0.049865723,-1.15625,0.015625,9.015625
1664985573341,0.015136719,-1.4910278,-0.029846191,-3.609375,2.90625,9.421875
1664985573367,0.26953125,-1.428772,-0.05621338,-9.671875,-9.609375,12.71875
1664985573444,-0.19824219,-1.2627563,-0.093322754,2.046875,-10.0625,11.6875
1664985573460,-0.029541016,-1.1287231,0.0038452148,8.8125,6.234375,-3.796875
1664985573497,0.09326172,-1.0100708,0.013366699,-0.796875,2.171875,8.15625
1664985573533,-0.061035156,-1.0525513,0.031433105,1.484375,5.1875,11.953125
1664985573564,-0.0053710938,-0.928772,0.0289917,5.1875,-7.1875,3.1875
1664985573607,0.06665039,-0.8833618,-0.06402588,-1.375,-4.6875,-0.859375
1664985573654,0.029785156,-0.9204712,-0.008361816,5.59375,1.5625,2.0
1664985573683,0.014404297,-0.9585571,0.036315918,4.484375,-0.140625,2.75
1664985573726,0.005126953,-0.91534424,0.007507324,1.96875,-0.28125,1.390625
1664985573775,-0.02734375,-0.9060669,0.028015137,1.234375,-0.796875,-0.25
1664985573802,-0.061035156,-0.8779907,0.04925537,0.0625,0.3125,-4.46875
1664985573848,-0.056884766,-0.8164673,0.0067749023,2.09375,5.3125,-5.34375
1664985573878,0.041503906,-0.8897095,0.0692749,-1.71875,4.90625,-4.046875
1664985573924,-0.1003418,-0.8960571,0.12225342,2.25,4.84375,-7.1875
1664985573968,-0.12475586,-0.77423096,0.0036010742,0.546875,2.59375,-9.53125
1664985573997,0.11254883,-0.8735962,0.14422607,6.578125,7.203125,-6.859375
1664985574074,-0.06689453,-0.864563,0.066833496,5.984375,-1.921875,-3.4375
1664985574089,-0.15600586,-0.8394165,0.048034668,4.203125,-0.890625,-7.328125
1664985574119,-0.08544922,-1.161438,-0.085510254,8.828125,-4.46875,-6.984375
1664985574177,0.1237793,-1.4863892,-0.26470947,-7.34375,-9.46875,-2.65625
1664985574206,0.10083008,-1.4302368,-0.015686035,12.140625,-17.5625,2.5625
1664985574237,-0.9223633,-1.2512817,-0.3040161,-0.84375,-8.34375,-2.046875
1664985574282,0.0546875,-1.2085571,-0.19561768,6.515625,10.578125,-17.078125
1664985574313,0.14501953,-1.2651978,-0.09210205,2.328125,-8.765625,4.890625
1664985574357,-0.33398438,-0.80303955,-0.14556885,3.921875,-5.546875,-1.328125
1664985574402,-0.20727539,-0.7761841,-0.1404419,8.71875,3.78125,-1.40625
1664985574435,-0.09375,-0.8977661,-0.16192627,4.03125,0.828125,-0.5625
1664985574477,-0.19262695,-0.9429321,-0.19732666,7.359375,8.4375,0.09375
1664985574523,-0.1237793,-0.8870239,-0.16729736,5.09375,1.25,-0.125
1664985574552,-0.20605469,-0.9343872,-0.124572754,1.609375,2.0625,-0.890625
1664985574597,-0.18798828,-0.93536377,-0.15802002,0.53125,3.1875,-1.84375
1664985574628,-0.12207031,-0.91192627,-0.120910645,-0.84375,2.984375,-0.6875
1664985574673,-0.19897461,-0.8826294,-0.043762207,-0.1875,0.625,-0.65625
1664985574749,-0.1496582,-0.7932739,-0.082336426,-6.40625,1.015625,1.140625
1664985574755,-0.14404297,-0.71343994,-0.0178833,-2.140625,-3.453125,1.9375
1664985574823,-0.28881836,-0.8904419,-0.03643799,-4.765625,-0.890625,2.359375
1664985574837,-0.14746094,-0.8440552,-0.10406494,-3.828125,2.265625,5.125
1664985574868,-0.03149414,-0.913147,-0.023010254,-0.09375,1.03125,8.421875
1664985574942,-0.36206055,-1.1074829,0.09539795,-8.796875,-6.8125,-0.484375
1664985574949,-0.1809082,-1.1260376,-0.035461426,-18.78125,-1.703125,3.171875
1664985575001,0.053955078,-1.2173462,-0.2131958,-2.90625,-1.53125,16.96875
1664985575035,0.12182617,-1.2879028,-0.027648926,-2.953125,-3.671875,10.515625
1664985575061,-0.13598633,-1.1436157,-0.21270752,-0.765625,-14.078125,4.84375
1664985575107,-0.040039062,-1.373352,0.0045776367,-1.59375,6.453125,-2.09375
1664985575154,-0.095703125,-1.1616821,-0.097229004,1.671875,-1.65625,-2.25
1664985575182,-0.044921875,-0.9014282,-0.16021729,0.296875,8.859375,-0.828125
1664985575227,0.10644531,-0.9500122,0.032409668,5.578125,4.703125,11.140625
1664985575303,-0.1027832,-0.98687744,-0.014465332,-5.53125,0.046875,3.875
1664985575312,-0.09863281,-0.94366455,-0.043762207,1.3125,-2.375,-1.9375
1664985575349,0.06616211,-0.91070557,-0.02520752,0.328125,1.15625,0.296875
1664985575379,0.0078125,-0.9209595,0.031921387,1.75,4.53125,2.21875
1664985575455,-0.055664062,-0.94732666,0.017028809,1.71875,3.859375,0.453125
1664985575472,-0.06689453,-0.9011841,0.04949951,-0.0625,1.0,-1.484375
1664985575497,-0.13085938,-0.7571411,0.002380371,4.6875,6.09375,-5.578125
1664985575574,-0.07373047,-0.7112427,-0.018127441,7.484375,13.0,-6.671875
1664985575592,-0.030517578,-0.7449341,-0.034484863,3.4375,4.65625,-3.890625
1664985575621,-0.05419922,-0.911438,0.07611084,5.421875,11.203125,-1.25
1664985575663,-0.03564453,-0.81988525,0.010437012,4.203125,3.25,-5.171875
1664985575692,-0.14453125,-0.94976807,0.12225342,0.578125,0.171875,-5.1875
1664985575737,-0.21728516,-1.0391235,0.034118652,1.5625,3.25,-9.546875
1664985575787,0.015136719,-1.2722778,0.01776123,-6.359375,5.828125,-12.515625
1664985575812,-0.08984375,-1.2927856,-0.23199463,1.484375,-1.828125,-0.828125
1664985575857,-0.059814453,-1.3340454,-0.12261963,0.6875,-10.4375,-6.015625
1664985575903,-0.24121094,-1.390686,-0.18634033,5.484375,-3.75,-3.6875
1664985575932,-0.09350586,-0.991272,-0.13873291,13.328125,0.75,2.640625
1664985575979,-0.24243164,-1.0012817,-0.097229004,5.84375,-0.84375,-3.59375
1664985576022,-0.23632812,-1.0530396,-0.18511963,6.59375,-3.890625,-7.25
1664985576051,-0.080566406,-0.8970337,-0.1326294,12.5,3.0,-1.125
1664985576096,-0.18530273,-0.81378174,-0.15924072,7.25,1.921875,-0.6875
1664985576126,-0.15625,-0.9661255,-0.17047119,4.703125,2.625,-0.765625
1664985576203,-0.044433594,-0.95635986,-0.12628174,6.453125,-2.796875,1.640625
1664985576219,-0.19311523,-0.8909302,-0.13873291,3.390625,-6.03125,-1.109375
1664985576246,-0.2434082,-0.93414307,-0.13043213,-0.125,-6.34375,-0.640625
1664985576323,-0.21118164,-0.96759033,-0.03253174,0.40625,-6.53125,-7.3125
1664985576337,-0.13378906,-0.8689575,-0.15582275,-8.375,-3.40625,-6.296875
1664985576365,-0.24584961,-0.82598877,-0.028381348,-6.796875,-2.609375,-2.859375
1664985576413,-0.16967773,-0.8208618,-0.06939697,-7.390625,-4.046875,-0.75
1664985576442,-0.16552734,-0.72442627,-0.12554932,-8.34375,-6.828125,6.703125
1664985576486,-0.2578125,-0.9212036,-0.03302002,-4.734375,-3.03125,2.015625
1664985576532,-0.16186523,-0.81036377,-0.032287598,-1.859375,-5.3125,0.828125
1664985576563,-0.47607422,-0.89971924,-0.0115356445,-10.625,5.3125,6.078125
1664985576614,-0.2697754,-1.173645,-6.1035156E-5,-10.0,1.921875,-6.125
1664985576653,-0.09448242,-1.1216431,0.015808105,-8.9375,10.0,1.1875
1664985576682,-0.18334961,-1.4837036,-0.05279541,-13.984375,13.125,3.46875
1664985576729,0.037109375,-1.1904907,-0.09307861,-6.71875,-3.40625,1.734375
1664985576763,-0.09057617,-1.0403442,-0.078430176,-1.625,4.578125,5.796875
1664985576803,-0.3112793,-1.1587524,-0.042053223,1.515625,1.5,-1.1875
1664985576847,-0.041259766,-0.9890747,0.006286621,3.484375,3.671875,-6.328125
1664985576877,-0.038330078,-1.0713501,-0.012756348,-5.109375,11.875,4.703125
1664985576953,-0.107910156,-1.081604,0.047058105,-1.203125,5.375,5.5
1664985576973,-0.005126953,-0.97320557,-0.020080566,-1.046875,-2.828125,5.34375
1664985576996,-0.115234375,-0.9534302,0.007507324,1.078125,-1.859375,3.9375
1664985577057,-0.11621094,-0.97320557,0.02923584,1.0625,-0.140625,2.5625
1664985577090,-0.084472656,-0.93927,0.05682373,0.65625,1.71875,1.515625
1664985577116,-0.12939453,-0.9404907,0.04144287,1.859375,2.59375,2.984375
1664985577162,-0.064453125,-0.8904419,0.05340576,0.484375,2.296875,2.5625
1664985577191,-0.13208008,-0.8694458,0.093688965,0.9375,4.328125,1.0625
1664985577238,-0.18725586,-0.862854,0.062438965,0.46875,4.25,-1.0
1664985577283,-0.13134766,-0.8208618,0.10809326,-1.15625,7.390625,-2.03125
1664985577313,-0.12060547,-0.772522,-0.0017700195,2.484375,4.546875,-3.828125
1664985577357,-0.103271484,-0.8880005,0.05340576,-0.90625,9.8125,-1.9375
1664985577402,0.025634766,-1.0210571,0.15350342,5.109375,3.5625,-3.828125
1664985577436,-0.1550293,-0.8821411,0.078063965,-3.375,-5.65625,-2.84375
1664985577508,-0.29467773,-0.84991455,0.28167725,-1.609375,-1.265625,-8.234375
1664985577514,-0.2368164,-0.95513916,0.07537842,-4.65625,-11.0,-12.625
1664985577552,-0.10913086,-1.2385864,0.097351074,-7.609375,-16.578125,-17.421875
1664985577597,-0.095458984,-1.3999634,-0.112854004,3.953125,-12.203125,-5.65625
1664985577631,-0.4074707,-1.229065,-0.21905518,3.171875,-3.296875,4.296875
1664985577703,-0.2397461,-1.1963501,-0.09283447,11.875,6.90625,-11.15625
1664985577718,-0.009033203,-1.0823364,0.014831543,5.03125,-1.5625,1.46875
1664985577748,-0.38891602,-1.0130005,-0.028381348,-5.296875,0.71875,0.4375
1664985577809,-0.31860352,-1.1533813,-0.033996582,-0.5625,5.390625,-7.53125
1664985577839,-0.055664062,-0.89385986,-0.051330566,4.265625,5.203125,0.984375
1664985577866,-0.26416016,-0.8423462,-0.051574707,1.8125,2.015625,2.125
1664985577911,-0.2368164,-0.95196533,-0.035949707,1.9375,0.671875,0.6875
1664985577944,-0.1784668,-0.89923096,0.024353027,9.0625,-2.0625,1.859375
1664985577988,-0.20825195,-0.80596924,-0.07550049,2.703125,-0.015625,5.21875
1664985578035,-0.30688477,-0.9102173,0.008483887,1.84375,-0.859375,3.015625
1664985578063,-0.2319336,-0.9680786,0.057556152,2.796875,-1.609375,-0.34375
1664985578107,-0.18725586,-0.60162354,-0.002746582,0.5625,-4.4375,4.125
1664985578151,-0.30908203,-0.84869385,-0.05718994,-8.28125,-5.09375,7.09375
1664985578181,-0.16821289,-0.79351807,0.055603027,0.46875,-9.0,1.109375
1664985578225,-0.3930664,-0.8855591,0.04144287,-3.75,-4.421875,7.921875
1664985578260,-0.41064453,-1.0852661,0.059020996,-11.328125,-9.578125,-0.640625
1664985578301,-0.122558594,-0.87384033,0.008239746,0.5625,2.125,7.890625
1664985578376,-0.45458984,-1.2180786,-0.021057129,-11.296875,3.34375,-3.46875
1664985578380,-0.09887695,-1.5908813,0.105651855,-3.375,18.21875,1.53125
1664985578453,0.28051758,-0.8284302,-0.10650635,8.59375,15.34375,19.625
1664985578467,-0.17651367,-1.1785278,0.08734131,-5.3125,16.359375,14.1875
1664985578498,-0.1796875,-1.3269653,0.11639404,5.40625,-5.34375,7.96875
1664985578543,-0.01977539,-1.0337524,0.051696777,-0.78125,1.953125,1.265625
1664985578573,-0.13842773,-0.9920044,0.046813965,4.765625,8.578125,3.21875
1664985578616,0.030273438,-1.0073853,0.0927124,1.265625,3.546875,5.609375
1664985578666,-0.036865234,-0.9365845,0.097839355,0.984375,3.046875,3.453125
1664985578695,-0.07006836,-0.9187622,0.027526855,2.765625,-1.1875,3.046875
1664985578751,-0.015136719,-0.8635864,0.0770874,2.265625,-2.015625,1.03125
1664985578811,-0.05859375,-0.92755127,0.12030029,3.234375,4.25,2.5
1664985578814,-0.123291016,-0.81988525,0.051696777,4.359375,1.546875,0.921875
1664985578858,-0.118652344,-0.72613525,0.070739746,3.703125,3.328125,-1.53125
1664985578902,-0.036376953,-0.913147,0.12200928,3.6875,8.265625,-1.734375
1664985578930,-0.11303711,-0.68927,0.009216309,4.46875,2.25,-3.4375
1664985578977,-0.037841797,-0.7703247,0.1473999,7.265625,15.75,-4.28125
1664985579011,-0.049560547,-0.90753174,0.001159668,2.625,4.453125,-4.515625
1664985579085,-0.08178711,-0.97076416,0.26898193,4.328125,3.3125,-7.453125
1664985579100,-0.17871094,-1.0518188,0.13568115,-0.515625,-0.765625,-9.5625
1664985579128,-0.096191406,-1.2561646,-0.19781494,-0.8125,-6.3125,-6.203125
1664985579206,0.22167969,-1.6030884,-0.003967285,-6.96875,-4.15625,-1.53125
1664985579217,-0.35864258,-1.2385864,-0.09918213,13.59375,-9.515625,9.234375
1664985579248,-0.4873047,-0.94610596,-0.093811035,0.6875,7.3125,-17.09375
1664985579293,0.21826172,-1.4546509,0.022399902,5.65625,-4.09375,-6.015625
1664985579325,-0.32617188,-1.1409302,-0.06842041,4.0,-0.015625,6.0
1664985579373,-0.32080078,-0.88482666,-0.12359619,6.09375,-3.4375,-8.15625
1664985579412,-0.078125,-0.892395,-0.097473145,7.78125,5.078125,-1.03125
1664985579446,-0.21679688,-0.85894775,-0.1416626,5.515625,4.796875,1.125
1664985579492,-0.107177734,-0.89678955,-0.101867676,4.703125,0.359375,0.5
1664985579531,-0.045654297,-0.7827759,-0.053771973,8.515625,0.859375,2.890625
1664985579562,-0.34838867,-0.83258057,-0.07501221,-2.484375,-4.0625,2.265625
1664985579608,-0.18017578,-0.9234009,0.00579834,-2.796875,-7.65625,-3.0
1664985579652,-0.07348633,-0.77716064,-0.07550049,2.5,-6.890625,4.296875
1664985579682,-0.23632812,-0.55914307,0.047058105,-1.890625,-6.21875,-0.328125
1664985579727,-0.47729492,-0.92852783,-0.036193848,-10.75,-4.84375,-2.15625
1664985579759,-0.12524414,-0.9920044,0.06488037,-8.265625,-3.078125,1.171875
1664985579833,-0.29638672,-0.7998657,0.006286621,-7.984375,-1.65625,-4.421875
1664985579847,-0.5571289,-1.2366333,0.004333496,-14.5625,14.171875,-2.84375
1664985579876,0.19042969,-1.7661743,0.07659912,-4.890625,23.921875,2.375
1664985579953,0.026611328,-1.0022583,-0.10797119,-6.21875,-5.65625,2.4375
1664985579995,-0.20166016,-1.3005981,-0.0017700195,-0.34375,4.734375,2.5625
1664985579997,0.008300781,-1.2573853,0.07879639,4.21875,4.375,2.03125
1664985580077,-0.050048828,-0.956604,-0.0256958,1.484375,1.78125,5.765625
1664985580084,-0.04736328,-0.9751587,0.08441162,2.5,5.828125,7.171875
1664985580117,-0.024902344,-0.9326782,0.051940918,3.953125,-1.25,10.109375
1664985580164,-0.06274414,-0.8591919,0.0038452148,2.015625,-1.75,7.15625
1664985580194,-0.017578125,-0.9607544,0.014587402,2.53125,0.578125,6.375
1664985580241,-0.044921875,-0.8604126,0.058776855,0.78125,-1.828125,4.84375
1664985580286,-0.14013672,-0.8567505,0.10614014,4.703125,6.140625,3.703125
1664985580312,-0.07763672,-0.86553955,0.05267334,4.828125,7.796875,-0.03125
1664985580358,-0.079589844,-0.79815674,0.1552124,5.25,6.5,-3.515625
1664985580390,-0.125,-0.7190552,-0.027648926,7.734375,11.0625,-2.359375
1664985580430,0.052001953,-0.85357666,0.10321045,8.234375,7.421875,-3.9375
1664985580475,-0.061279297,-0.8743286,0.06121826,8.890625,0.40625,-2.8125
1664985580505,-0.08325195,-0.9043579,0.06463623,7.359375,1.671875,-0.859375
1664985580551,-0.1315918,-1.1104126,0.041931152,6.9375,-1.984375,-8.171875
1664985580626,0.061523438,-1.2937622,-0.128479,1.375,-11.609375,-3.03125
1664985580632,0.17675781,-1.5142212,-0.051330566,3.984375,-18.40625,3.859375
1664985580702,-0.45166016,-1.1292114,-0.25933838,15.609375,-23.1875,5.640625
1664985580717,-0.38085938,-0.9841919,-0.21466064,2.53125,12.125,-10.84375
1664985580746,-0.0034179688,-1.3706665,-0.05230713,3.75,-0.015625,-1.484375
1664985580793,-0.26245117,-1.067688,-0.17877197,2.6875,-0.015625,-1.484375
1664985580822,-0.24804688,-0.9624634,-0.11480713,6.625,4.6875,-5.28125
1664985580866,-0.13720703,-0.9414673,-0.14434814,1.3125,3.015625,-2.609375
1664985580911,-0.07128906,-0.84381104,-0.159729,3.9375,-0.46875,0.078125
1664985580941,-0.12573242,-0.772522,-0.14239502,7.796875,-2.140625,1.796875
1664985580987,-0.19799805,-0.798645,-0.12799072,4.828125,-4.390625,0.1875
1664985581032,-0.13208008,-0.72125244,-0.13311768,2.21875,-4.5625,-0.90625
1664985581063,-0.13598633,-0.71759033,-0.073791504,6.828125,-2.53125,0.3125
1664985581107,-0.19238281,-0.78326416,-0.061828613,3.515625,-8.09375,-1.890625
1664985581137,-0.18945312,-0.8904419,-0.12335205,-9.078125,-10.265625,4.234375
1664985581181,-0.31835938,-1.0181274,-0.054748535,-5.734375,-5.4375,1.9375
1664985581258,-0.32470703,-1.02594,-0.053527832,-6.921875,-2.546875,-2.328125
1664985581264,-0.35791016,-1.1279907,-0.025939941,-13.09375,5.265625,-5.90625
1664985581332,-0.3022461,-1.1428833,-0.03277588,-14.734375,5.640625,-8.28125
1664985581352,0.23095703,-1.1582642,-0.22613525,-6.203125,8.453125,8.28125
1664985581378,0.018798828,-1.0359497,-0.10723877,-2.90625,-0.53125,13.578125
1664985581423,-0.1574707,-1.4334106,-0.051574707,-6.71875,-0.96875,1.8125
1664985581469,0.0126953125,-1.4448853,0.011169434,0.171875,-2.84375,6.6875
1664985581498,-0.14648438,-1.038147,-0.13092041,-3.109375,2.734375,0.859375
1664985581544,0.11767578,-0.9920044,-0.0051879883,3.28125,-1.8125,1.640625
1664985581572,-0.14404297,-0.94488525,-0.023498535,0.078125,1.234375,9.609375
1664985581619,-0.0793457,-0.86431885,-0.011291504,-0.765625,2.6875,2.59375
1664985581664,0.0078125,-0.8377075,0.018737793,-0.78125,3.125,0.421875
1664985581692,-0.10986328,-0.7698364,-0.028625488,0.234375,3.046875,2.390625
1664985581738,-0.048095703,-0.75860596,0.0602417,3.421875,12.234375,2.796875
1664985581782,-0.07763672,-0.7739868,0.01751709,1.859375,8.75,-1.59375
1664985581811,-0.104003906,-0.85821533,0.06365967,4.296875,12.046875,-2.84375
1664985581858,0.029052734,-0.7581177,-5.493164E-4,2.984375,4.234375,-3.265625
1664985581889,0.045166016,-0.8362427,0.017028809,1.234375,8.8125,3.15625
1664985581934,-0.19458008,-1.0274048,0.07757568,2.890625,2.5625,1.46875
1664985581977,-0.029296875,-1.0637817,0.23944092,-1.34375,3.78125,-10.28125
1664985582008,-0.15966797,-1.1514282,-0.12823486,-7.703125,-8.0,-4.328125
1664985582082,-0.08935547,-1.3928833,-0.15875244,-1.671875,-4.078125,-6.890625
1664985582096,0.2841797,-1.3052368,-0.22467041,3.046875,-14.78125,5.640625
1664985582128,-0.40478516,-1.2268677,-0.11627197,0.15625,-19.0625,7.65625
1664985582187,-0.1171875,-1.2346802,-0.07232666,8.109375,-9.125,-4.390625
1664985582202,-0.24267578,-1.0977173,-0.093322754,2.6875,-3.390625,-2.625
1664985582247,-0.17138672,-1.0200806,-0.13873291,3.671875,1.109375,-6.65625
1664985582296,-0.05102539,-0.9055786,-0.101867676,5.515625,0.28125,-0.0625
1664985582323,-0.19311523,-0.8284302,-0.10675049,4.6875,-0.171875,-0.859375
1664985582370,-0.110839844,-0.8772583,-0.09283447,3.421875,-0.359375,-1.8125
1664985582411,-0.020019531,-0.79815674,-0.09698486,6.921875,-2.65625,2.5625
1664985582443,-0.2133789,-0.77301025,-0.074035645,4.8125,-7.625,2.515625
1664985582488,-0.032226562,-0.7901001,-0.027404785,3.703125,-6.765625,2.125
1664985582563,0.010009766,-0.61553955,-0.10821533,2.984375,-21.0625,5.5625
1664985582569,-0.3125,-0.8164673,-0.04498291,-1.890625,-14.90625,8.0625
1664985582640,-0.23779297,-1.0374146,-0.019104004,0.875,-13.359375,3.96875
1664985582644,-0.35595703,-1.1411743,-0.023498535,-12.046875,-10.421875,-2.3125
1664985582682,-0.18066406,-1.2376099,-0.050598145,-19.875,-3.359375,-2.265625
1664985582728,-0.15234375,-1.1570435,-0.009094238,-8.8125,-2.015625,2.328125
1664985582761,-0.25878906,-1.0928345,-0.15338135,-11.59375,3.484375,0.03125
1664985582834,0.1430664,-1.4194946,-0.06842041,-9.453125,4.25,0.3125
1664985582849,0.23071289,-1.1016235,-0.0071411133,1.140625,-5.28125,8.3125
1664985582877,-0.24584961,-1.0188599,-0.043762207,3.671875,0.578125,1.015625
1664985582955,0.029296875,-1.1948853,-0.00982666,2.34375,4.03125,0.328125
1664985582959,0.103271484,-1.0371704,0.058044434,0.125,0.390625,9.671875
1664985582999,-0.068603516,-0.9710083,-0.006164551,0.859375,0.1875,3.3125
1664985583042,0.02758789,-0.85406494,-0.10040283,5.625,5.734375,4.46875
1664985583075,0.06323242,-0.9048462,0.028747559,2.4375,4.734375,8.03125
1664985583117,-0.044189453,-1.010315,0.019226074,3.625,3.90625,7.25
1664985583163,-0.042236328,-0.8530884,0.01751709,3.34375,8.015625,3.71875
1664985583196,-0.07885742,-0.82647705,0.06072998,6.640625,15.3125,1.359375
1664985583239,-0.053955078,-0.76397705,0.025817871,7.65625,15.71875,-3.03125
1664985583267,-0.03515625,-0.70025635,0.007507324,1.828125,11.578125,-2.84375
1664985583312,-0.049804688,-0.8689575,0.06341553,9.640625,20.328125,-2.765625
1664985583357,-0.033203125,-0.7908325,-0.008605957,14.421875,13.0625,-6.265625
1664985583387,0.028808594,-0.74420166,-0.09625244,5.921875,4.640625,-4.703125
1664985583432,-0.10986328,-1.078186,0.14910889,8.375,17.703125,-6.546875
1664985583508,-0.1484375,-1.0786743,-0.06011963,5.234375,6.328125,-14.046875
1664985583514,0.034179688,-1.2261353,-0.15435791,-8.65625,5.9375,-8.171875
1664985583583,0.08642578,-1.3987427,-0.19586182,7.90625,3.109375,-2.28125
1664985583597,-0.123535156,-1.2564087,-0.31817627,-2.53125,-12.21875,3.734375
1664985583628,-0.25561523,-1.3311157,-0.1260376,0.5625,1.453125,-9.25
1664985583673,-0.20678711,-1.1912231,-0.13409424,-0.984375,9.265625,-6.65625
1664985583710,0.010498047,-1.0718384,-0.16461182,2.921875,8.078125,-1.828125
1664985583746,-0.11621094,-1.0171509,-0.15899658,6.875,-4.125,-1.140625
1664985583796,-0.13012695,-0.89263916,-0.144104,5.671875,-3.390625,-4.28125
1664985583821,-0.12084961,-0.7793579,-0.17388916,3.796875,-3.28125,-3.953125
1664985583869,-0.13598633,-0.803772,-0.14019775,2.34375,-3.3125,-0.96875
1664985583942,-0.11352539,-0.7451782,-0.09552002,5.59375,-3.703125,-0.46875
1664985583950,-0.09350586,-0.6404419,-0.094055176,-1.4375,-5.625,-0.40625
1664985583987,-0.20947266,-0.8340454,-0.074279785,-10.046875,-9.6875,0.890625
1664985584018,-0.13769531,-0.82232666,-0.066467285,-2.046875,-8.71875,4.078125
1664985584061,-0.18774414,-0.6878052,0.0033569336,-4.625,-6.03125,4.15625
1664985584107,-0.27172852,-1.0081177,0.027038574,-18.828125,-4.625,-2.640625
1664985584139,0.043701172,-1.0691528,-0.14874268,-10.078125,-16.109375,4.6875
1664985584213,-0.234375,-1.1997681,-0.019592285,-19.46875,10.421875,9.265625
1664985584229,0.17089844,-1.2871704,-0.14434814,-5.5625,-5.15625,2.890625
1664985584259,0.125,-1.602356,0.032165527,-11.234375,-1.265625,0.578125
1664985584334,-0.16381836,-1.3411255,-0.016906738,1.828125,-12.515625,7.828125
1664985584348,-0.09008789,-1.0632935,0.002380371,-2.15625,-4.1875,-0.03125
1664985584378,-0.055664062,-1.1011353,0.027038574,3.078125,-6.125,3.359375
1664985584423,-0.13500977,-0.82818604,0.002380371,3.453125,-3.5625,0.984375
1664985584456,-0.051513672,-0.7095337,1.8310547E-4,4.734375,1.546875,-1.0625
1664985584496,0.0024414062,-0.82037354,0.013122559,5.453125,1.84375,2.0
1664985584541,-0.068359375,-0.72369385,0.051696777,3.15625,1.296875,3.171875
1664985584572,-0.10571289,-0.80914307,0.038024902,7.59375,11.015625,1.90625
1664985584617,-0.061767578,-0.76446533,0.06414795,10.484375,11.34375,-3.21875
1664985584664,0.020507812,-0.79107666,0.08880615,5.15625,7.46875,-5.09375
1664985584691,-0.07421875,-0.8599243,-0.055480957,8.453125,11.734375,1.015625
1664985584737,0.08911133,-0.8916626,0.09857178,7.625,8.75,-7.03125
1664985584770,0.055664062,-0.99346924,0.11053467,-0.3125,-9.578125,-5.859375
1664985584812,-0.20410156,-1.2092896,-0.23370361,1.640625,-10.671875,-7.0625
1664985584858,0.040527344,-1.505188,-0.20733643,13.125,2.328125,-1.9375
1664985584890,-0.20043945,-1.3345337,-0.27301025,3.34375,-14.234375,4.4375
1664985584932,-0.20214844,-1.2268677,-0.15435791,10.828125,-9.90625,-6.96875
1664985585017,-0.2434082,-1.1294556,-0.15875244,12.71875,-5.0625,-2.09375
1664985585023,-0.32617188,-1.1209106,-0.17828369,9.34375,7.875,-13.296875
1664985585083,-0.07788086,-1.1533813,-0.19683838,5.125,3.875,-9.828125
1664985585086,-0.04345703,-0.89801025,-0.17584229,4.078125,3.90625,-1.296875
1664985585157,-0.2121582,-0.79693604,-0.1675415,-0.015625,2.453125,-3.171875
1664985585171,-0.21972656,-0.81134033,-0.18463135,-2.21875,1.234375,-3.15625
1664985585203,-0.08251953,-0.78741455,-0.12994385,-1.109375,0.671875,-1.46875
1664985585249,-0.15356445,-0.77349854,-0.14019775,-3.65625,2.5625,0.859375
1664985585291,-0.20043945,-0.69537354,-0.0713501,-4.1875,-3.71875,-0.1875
1664985585322,-0.26538086,-0.87213135,-0.07232666,-7.96875,-0.84375,5.25
1664985585369,-0.15161133,-0.68536377,-0.12286377,-5.53125,-2.1875,5.90625
1664985585443,-0.38354492,-0.894104,-5.493164E-4,-6.5625,-3.15625,-2.25
1664985585448,-0.29248047,-0.99468994,-0.039367676,-20.625,-3.703125,-3.46875
1664985585490,-0.075927734,-0.96881104,-0.10748291,-8.5625,2.75,9.734375
1664985585517,-0.2536621,-1.1765747,-0.24298096,-9.484375,10.125,10.921875
1664985585562,0.2631836,-1.2490845,-0.27593994,-1.046875,6.53125,11.984375
1664985585608,0.38085938,-1.5237427,0.041931152,2.015625,-3.515625,17.921875
1664985585638,-0.5678711,-1.392395,-0.18682861,-4.453125,-12.25,7.359375
1664985585713,-0.041503906,-1.187561,-0.08111572,0.234375,-0.421875,-7.3125
1664985585728,0.096191406,-0.9885864,-0.0064086914,3.921875,2.578125,3.546875
1664985585757,-0.118652344,-0.8291626,-0.04815674,4.296875,-4.8125,0.609375
1664985585834,-0.107421875,-0.8399048,-0.06719971,-1.765625,8.5,0.515625
1664985585850,0.026611328,-0.86724854,-0.039123535,2.09375,9.25,1.203125
1664985585876,-0.1081543,-0.84503174,0.022888184,2.421875,14.34375,2.328125
1664985585924,-0.091552734,-0.7263794,-0.09063721,3.40625,13.65625,6.65625
1664985585959,-0.031982422,-0.86138916,0.04559326,3.765625,20.40625,6.703125
1664985586002,-0.0637207,-0.84381104,0.005554199,3.34375,12.28125,0.5
1664985586042,0.05053711,-0.7192993,-0.043273926,2.625,9.78125,-1.140625
1664985586073,0.044189453,-0.9265747,0.04144287,4.046875,9.03125,2.609375
1664985586118,-0.09667969,-0.8386841,-0.053771973,8.015625,0.21875,-1.9375
1664985586162,0.041992188,-1.0171509,0.14447021,-4.390625,3.03125,-4.171875
1664985586192,-0.19628906,-1.081604,0.011657715,-0.03125,4.109375,-4.609375
1664985586239,0.064208984,-1.1970825,-0.05230713,-7.28125,-2.53125,-10.484375
1664985586265,0.052978516,-1.2720337,-0.20635986,-3.796875,-1.5625,-1.078125
1664985586311,-0.10107422,-1.1758423,-0.28399658,7.703125,-13.296875,3.9375
1664985586356,-0.22998047,-1.2627563,-0.15533447,1.046875,-4.109375,-3.703125
1664985586387,-0.084228516,-1.18927,-0.059631348,2.375,-3.359375,-3.890625
1664985586463,-0.28857422,-1.1372681,-0.1326294,-4.6875,1.640625,-4.15625
1664985586478,-0.14672852,-1.0906372,-0.17364502,0.015625,-1.4375,-10.21875
1664985586507,-0.026611328,-0.9121704,-0.089904785,3.453125,3.21875,-1.84375
1664985586553,-0.12011719,-0.7683716,-0.13043213,2.046875,1.03125,1.703125
1664985586583,-0.1472168,-0.78570557,-0.11968994,5.21875,-3.078125,0.390625
1664985586627,-0.06274414,-0.75372314,-0.10308838,8.96875,-4.640625,2.8125
1664985586673,-0.10253906,-0.57818604,-0.12335205,3.6875,-7.890625,1.703125
1664985586702,-0.38623047,-0.8633423,-0.14215088,-1.890625,-4.703125,-2.578125
1664985586748,-0.048095703,-1.0886841,0.04510498,6.71875,-11.90625,-2.296875
1664985586793,-0.11279297,-0.75372314,-0.086242676,-10.984375,-11.015625,7.140625
1664985586821,-0.5539551,-0.99102783,0.012634277,-24.8125,-1.0,-3.34375
1664985586867,0.03100586,-0.95318604,0.0067749023,-10.640625,-2.171875,-3.1875
1664985586900,-0.40478516,-0.9360962,-0.17315674,-18.0,-1.859375,-5.640625
1664985586943,-0.54418945,-1.899231,0.04144287,-24.25,22.671875,-27.296875
1664985586988,0.27392578,-1.4260864,0.06903076,-17.375,10.0,-13.65625
1664985587019,-0.035888672,-0.59088135,-0.26934814,6.703125,2.96875,6.515625
1664985587092,-0.046142578,-0.9614868,-0.02935791,3.53125,-0.46875,1.484375
1664985587108,0.26538086,-1.3884888,0.2374878,-0.328125,-1.0625,17.75
1664985587138,-0.3190918,-0.9819946,-0.026672363,0.984375,-14.71875,8.265625
1664985587214,-0.16894531,-0.8713989,0.036315918,2.46875,-1.53125,1.03125
1664985587227,0.034423828,-1.0657349,0.10028076,3.140625,-4.109375,10.1875
1664985587257,-0.080566406,-0.8057251,0.051696777,4.96875,-2.015625,5.125
1664985587302,-0.01977539,-0.8311157,0.04949951,2.828125,-1.796875,5.546875
1664985587333,-0.030517578,-0.81915283,0.12713623,2.890625,0.921875,3.234375
1664985587377,-0.11791992,-0.85772705,0.02142334,-1.796875,7.171875,0.578125
1664985587423,0.010986328,-0.8369751,0.042175293,5.0625,-0.953125,-4.65625
1664985587453,0.036865234,-0.6860962,0.03729248,2.78125,1.1875,-2.6875
1664985587497,-0.02758789,-0.8870239,0.028747559,2.734375,5.234375,8.625
1664985587543,-0.033935547,-1.0286255,0.30828857,3.765625,-3.8125,-3.125
1664985587573,-0.24584961,-0.79400635,-0.028625488,8.40625,-11.015625,-3.171875
1664985587616,-0.1640625,-0.9385376,0.0758667,-2.09375,-12.390625,-16.859375
1664985587649,0.080566406,-1.3303833,-0.06378174,4.984375,-10.109375,-5.265625
1664985587692,0.055419922,-1.2002563,-0.0335083,2.0,-6.71875,2.984375
1664985587776,-0.18310547,-1.2820435,-0.3814087,-1.8125,-27.359375,9.328125
1664985587783,-0.37573242,-1.3001099,-0.0032348633,18.40625,0.03125,-22.265625
1664985587816,-0.013427734,-1.2940063,0.016784668,4.265625,5.5625,-0.515625
1664985587888,-0.40942383,-1.1079712,-0.05206299,-4.359375,-1.90625,-6.484375
1664985587892,-0.09350586,-0.9993286,-0.07330322,5.453125,4.53125,-7.640625
1664985587964,-0.026611328,-0.8796997,-0.04107666,4.125,2.59375,-1.390625
1664985587981,-0.23120117,-0.81915283,-0.14752197,0.328125,-3.953125,-1.421875
1664985588015,-0.12597656,-0.79351807,-0.082336426,-3.203125,-7.078125,-0.875
1664985588052,-0.13696289,-0.7649536,-0.06939697,0.859375,-7.234375,0.546875
1664985588082,-0.095214844,-0.6123657,-0.054748535,0.484375,-8.34375,1.359375
1664985588128,-0.29125977,-0.8557739,-0.07550049,-8.171875,-8.515625,0.265625
1664985588172,-0.24902344,-0.97613525,0.012878418,-5.0625,-9.28125,-2.15625
1664985588203,-0.21484375,-0.708313,-0.028869629,-3.71875,-9.78125,1.046875
1664985588248,-0.21923828,-0.76153564,0.014831543,-13.421875,2.921875,4.484375
1664985588292,-0.10668945,-0.9771118,-0.039123535,-0.5625,-10.390625,0.234375
1664985588326,-0.19433594,-1.206604,0.008483887,-8.09375,4.625,6.203125
1664985588370,0.1003418,-1.373352,-0.06744385,-17.78125,2.0,15.359375
1664985588400,-0.013671875,-1.4729614,0.024841309,-4.671875,-5.4375,4.59375
1664985588443,-0.35327148,-1.3171997,-0.031066895,7.6875,-9.34375,6.875
1664985588489,0.05126953,-1.1716919,0.13470459,1.828125,2.3125,-1.890625
1664985588518,-0.07006836,-1.1331177,-0.06964111,-7.359375,6.421875,8.25
1664985588564,-0.053466797,-1.0440063,0.085632324,0.46875,-0.15625,5.015625
1664985588638,-0.03125,-0.92266846,0.06463623,1.171875,-2.109375,3.609375
1664985588643,-0.07324219,-0.8765259,0.042419434,0.875,-1.171875,1.53125
1664985588713,-0.08862305,-0.864563,0.020202637,4.828125,7.78125,2.53125
1664985588719,0.055419922,-0.8230591,0.078552246,-0.375,9.484375,3.53125
1664985588787,-0.08544922,-0.770813,0.06365967,2.1875,7.953125,1.484375
1664985588801,-0.14941406,-0.75323486,0.08782959,3.625,15.703125,3.0625
1664985588837,0.0048828125,-0.861145,0.09539795,3.78125,13.25,0.546875
1664985588879,-0.11987305,-0.767395,0.039733887,2.90625,4.109375,-4.703125
1664985588923,-0.11401367,-0.8220825,0.051696777,4.75,14.453125,-4.171875
1664985588952,0.018554688,-0.9265747,0.055358887,4.78125,6.65625,-5.109375
1664985589028,-0.072265625,-0.97052,0.15570068,-0.109375,2.0625,-3.515625
1664985589042,-0.19433594,-1.1026001,-0.030334473,-0.9375,-0.890625,-9.578125
1664985589077,0.031982422,-1.3916626,-0.061828613,1.1875,-7.203125,-9.109375
1664985589116,0.1430664,-1.2737427,-0.09869385,1.203125,-14.375,-0.5
1664985589147,-0.33764648,-1.0359497,-5.493164E-4,7.171875,-5.671875,-1.03125
1664985589192,-0.33935547,-1.117981,-0.20928955,-0.21875,0.90625,-8.4375
1664985589239,0.099121094,-1.3904419,0.023620605,11.5,-1.515625,-6.46875
1664985589267,-0.26635742,-1.1199341,-0.04888916,3.046875,0.28125,2.546875
1664985589344,-0.28149414,-0.8689575,-0.10870361,1.234375,1.953125,-2.203125
1664985589361,-0.072265625,-1.0154419,-0.035217285,6.375,0.375,-0.609375
1664985589389,-0.12792969,-0.9085083,-0.034484863,1.5,-4.296875,2.140625
1664985589449,-0.16479492,-0.8069458,-0.03692627,1.6875,-3.734375,0.90625
1664985589467,-0.15893555,-0.7456665,-0.054992676,5.15625,-6.8125,2.5625
1664985589508,-0.171875,-0.7107544,-0.026916504,5.234375,-8.015625,3.328125
1664985589555,-0.23022461,-0.80841064,-0.027404785,3.984375,-8.6875,-0.15625
1664985589583,-0.23779297,-0.8447876,-0.0115356445,-4.546875,-6.4375,0.859375
1664985589628,-0.29638672,-0.9194946,-0.019592285,-4.53125,-4.734375,-3.28125
1664985589673,-0.091552734,-0.9175415,-0.12310791,-10.4375,-5.296875,-5.140625
1664985589702,-0.16625977,-0.9404907,0.06365967,-4.140625,-0.71875,2.671875
1664985589748,-0.33007812,-1.1243286,-0.050109863,-13.75,-4.984375,-0.015625
1664985589795,-0.038330078,-1.229065,-0.06866455,-14.8125,1.453125,6.328125
1664985589824,0.09082031,-1.2434692,0.06072998,0.40625,5.25,6.359375
1664985589868,-0.09741211,-1.2649536,-0.016418457,-3.390625,1.296875,7.390625
1664985589897,-0.07397461,-1.2949829,-0.027160645,1.28125,-4.515625,7.90625
1664985589942,-0.0546875,-1.09552,0.014343262,4.859375,3.109375,5.921875
1664985589987,-0.11669922,-1.0733032,0.020690918,3.296875,8.328125,3.484375
1664985590018,0.0029296875,-1.1062622,0.047302246,-0.78125,3.828125,1.984375
1664985590092,0.044677734,-0.9595337,0.041931152,-2.78125,0.765625,1.875
1664985590167,-0.04248047,-0.93292236,0.06439209,1.640625,1.703125,0.359375
1664985590172,-0.055908203,-0.89556885,0.022888184,-1.1875,-1.03125,-1.8125
1664985590183,-0.015380859,-0.85601807,0.04949951,-4.453125,2.71875,-1.15625
1664985590213,-0.12084961,-0.82403564,0.11932373,6.6875,7.90625,-0.984375
1664985590256,-0.107910156,-0.6939087,-0.039123535,-1.53125,9.015625,-5.9375
1664985590332,0.022949219,-0.9043579,0.20721436,4.640625,14.375,-1.359375
1664985590337,-0.1328125,-0.7505493,0.061950684,4.25,6.453125,-5.1875
1664985590378,-0.09008789,-0.66363525,-0.0569458,-1.59375,2.03125,-2.015625
1664985590422,-0.06567383,-1.0923462,0.26385498,5.140625,15.28125,-7.828125
1664985590451,-0.19335938,-0.9404907,0.021911621,2.953125,-6.390625,-7.859375
1664985590498,-0.06738281,-0.85235596,0.1539917,0.40625,4.296875,-8.046875
1664985590528,-0.22509766,-1.3672485,-0.06964111,-0.3125,-3.984375,-9.796875
1664985590572,-0.078125,-1.3772583,6.713867E-4,1.828125,1.484375,-4.78125
1664985590617,-0.02319336,-0.9663696,-0.026916504,15.03125,1.015625,-4.375
1664985590650,-0.39746094,-1.2022095,-0.19390869,-4.96875,1.796875,2.640625
1664985590693,-0.08886719,-1.3987427,-0.06500244,9.921875,-3.140625,-7.0625
1664985590778,-0.08666992,-1.102356,0.0119018555,13.359375,2.328125,1.21875
1664985590783,-0.4086914,-1.0283813,-0.09210205,-0.234375,-1.234375,1.171875
1664985590843,-0.13867188,-0.9915161,-0.11187744,5.140625,1.546875,-7.984375
1664985590856,-0.1459961,-0.8814087,-0.016174316,5.625,3.078125,2.25
1664985590886,-0.19116211,-0.87750244,-0.08380127,-0.015625,-1.6875,-3.109375
1664985590932,-0.07739258,-0.8328247,-0.028869629,1.59375,-2.109375,1.890625
1664985590962,-0.13720703,-0.6848755,-0.02130127,-0.53125,-6.46875,4.6875
1664985591007,-0.31933594,-0.7991333,-0.06402588,-6.203125,-6.25,0.0625
1664985591054,-0.18530273,-0.79156494,-0.018371582,-6.265625,-11.4375,0.0
1664985591085,-0.22851562,-0.706604,-0.012756348,-5.65625,-5.34375,-1.1875
1664985591127,-0.23535156,-0.90948486,-0.010314941,-17.15625,-5.34375,-2.046875
1664985591173,-0.16918945,-1.0689087,0.07928467,-12.203125,-7.046875,0.125
1664985591204,-0.36547852,-1.0339966,0.034606934,-14.6875,-6.21875,-1.609375
1664985591248,-0.24975586,-1.1323853,-0.1194458,-13.0,7.453125,-1.015625
1664985591280,0.26733398,-1.2817993,0.039001465,-4.921875,6.234375,13.5625
1664985591322,-0.00390625,-1.361145,0.16107178,-12.40625,-16.90625,18.03125
1664985591369,-0.546875,-1.1729126,-0.086242676,-5.90625,-11.734375,2.96875
1664985591398,-0.09057617,-1.0325317,0.13543701,2.5,8.15625,-5.640625
1664985591443,0.06518555,-1.1414185,0.0770874,-2.578125,4.703125,10.109375
1664985591489,-0.12573242,-1.1123657,0.14959717,2.015625,-7.328125,2.453125
1664985591521,-0.11669922,-0.90826416,0.0848999,4.125,-6.75,1.421875
1664985591593,-0.01586914,-0.90460205,0.039001465,2.09375,-2.9375,4.765625
1664985591607,-0.064208984,-0.93707275,0.09613037,2.8125,-3.953125,2.25
1664985591640,-0.059570312,-0.8826294,0.1239624,1.71875,-3.515625,2.171875
1664985591698,-0.087646484,-0.817688,0.10345459,1.09375,-1.015625,1.015625
1664985591713,-0.15209961,-0.79107666,0.11419678,1.015625,-2.453125,-1.859375
1664985591759,-0.048828125,-0.9072876,0.14715576,0.125,3.296875,-4.625
1664985591801,-0.040527344,-0.90289307,0.13568115,0.5625,1.34375,-3.625
1664985591832,-0.14282227,-0.7788696,0.085876465,0.515625,-4.953125,-7.140625
1664985591878,-0.057373047,-0.86846924,0.15008545,2.265625,1.953125,-5.28125
1664985591923,-0.1484375,-0.8587036,0.113464355,3.859375,-5.703125,-4.46875
1664985591952,-0.1616211,-0.954895,0.23431396,-7.03125,-3.6875,-9.5
1664985592000,-0.29760742,-1.1707153,0.11444092,-1.859375,-7.984375,-12.96875
1664985592026,-0.14550781,-1.1548462,0.007751465,-2.34375,-3.546875,-8.859375
1664985592074,0.07397461,-1.2297974,0.055358887,3.171875,0.4375,-1.34375
1664985592117,-0.6022949,-1.4658813,-0.3501587,-7.671875,-5.84375,4.203125
1664985592146,-0.032958984,-1.4590454,0.09173584,23.125,7.796875,-22.59375
1664985592196,0.36132812,-0.9378052,0.15838623,4.65625,-7.53125,16.328125
1664985592271,-0.7348633,-0.99542236,-0.09039307,-8.640625,-8.75,10.265625
1664985592276,-0.103271484,-1.100647,-0.009338379,5.71875,-19.921875,-7.84375
1664985592343,0.029296875,-0.87628174,-0.03717041,7.109375,-7.234375,3.78125
1664985592349,-0.26098633,-0.8748169,-0.089660645,8.859375,-5.1875,3.96875
1664985592389,-0.17480469,-0.9685669,-0.016418457,7.171875,-10.1875,0.9375
1664985592437,-0.16015625,-0.9390259,-0.054992676,4.453125,-11.15625,-0.265625
1664985592461,-0.22241211,-0.9385376,-0.10699463,1.984375,-14.234375,-3.171875
1664985592507,-0.26733398,-1.0803833,-0.10333252,7.234375,-13.390625,-6.421875
1664985592553,-0.17700195,-1.0598755,-0.07940674,-2.84375,-9.46875,-6.515625
1664985592583,-0.14331055,-1.0186157,-0.0015258789,0.921875,-9.296875,-0.765625
