# Sensor type: Respeck
# Activity type: Sitting
# Activity code: 0
# Subject id: s1918275
# Notes: first try
timestamp,accel_x,accel_y,accel_z,gyro_x,gyro_y,gyro_z
1664286655642,-0.056884766,-0.050842285,1.0289917,4.046875,-0.75,0.203125
1664286655715,-0.045654297,0.013366699,1.0336304,1.0625,-0.125,0.03125
1664286655717,-0.045654297,0.007751465,1.0348511,0.375,0.125,0.078125
1664286655789,-0.044433594,-7.9345703E-4,1.0326538,0.640625,0.171875,0.046875
1664286655805,-0.047851562,0.01751709,1.0377808,-0.375,0.328125,0.40625
1664286655835,-0.046142578,0.018249512,1.0514526,0.09375,0.203125,-7.375
1664286655925,-0.037353516,0.020690918,1.0272827,-0.84375,0.328125,1.015625
1664286655927,-0.042236328,-0.0071411133,1.0551147,-12.25,2.640625,8.5
1664286655959,-0.045654297,0.4105835,1.0734253,6.3125,-1.359375,-95.40625
1664286656002,0.06567383,-0.28546143,1.0206909,5.875,-2.234375,-102.0625
1664286656031,0.0029296875,-0.020568848,1.0299683,1.265625,-0.71875,-89.21875
1664286656105,0.1706543,0.18328857,1.0280151,-0.390625,-17.359375,44.359375
1664286656121,-0.099365234,-0.042785645,0.9935913,-5.703125,-6.40625,69.875
1664286656149,0.091552734,0.04949951,1.1425171,-10.203125,-8.359375,10.765625
1664286656225,-0.07885742,0.18695068,1.137146,17.1875,-20.546875,34.734375
1664286656247,-0.17138672,-0.08087158,1.5199585,87.296875,24.671875,36.8125
1664286656269,-0.18261719,-0.42462158,1.4984741,147.84375,78.390625,1.8125
1664286656345,-0.10180664,-0.6123657,1.0968628,193.28125,104.390625,17.453125
1664286656366,0.016601562,-0.7046509,1.0241089,307.39062,139.59375,43.5
1664286656389,0.032958984,-0.55963135,0.28070068,275.53125,110.0625,-15.59375
1664286656467,0.35546875,-0.62872314,0.33221436,290.20312,121.703125,-102.640625
1664286656470,0.099121094,-0.058898926,-0.17266846,162.70312,66.96875,-15.171875
1664286656538,0.25927734,-0.7119751,-1.225647,187.85938,106.78125,12.046875
1664286656564,0.47851562,-0.6069946,-0.32330322,226.25,80.59375,-96.828125
1664286656584,0.24438477,-0.25152588,-1.039856,-20.640625,53.46875,26.34375
1664286656660,0.52612305,-0.43829346,-1.2681274,40.640625,-21.859375,118.359375
1664286656673,0.7207031,-0.23565674,-1.2783813,20.671875,-20.71875,-19.390625
1664286656704,0.45996094,-0.1963501,-1.2200317,-75.5625,-131.15625,-86.25
1664286656783,0.11450195,-0.69854736,-0.30596924,224.04688,-335.64062,164.64062
1664286656786,-0.033691406,0.024353027,-0.3760376,-183.71875,-83.140625,511.98438
1664286656859,-0.037841797,0.40911865,-0.15557861,-54.53125,-260.75,494.48438
1664286656872,1.9240723,1.2406616,-0.19244385,81.703125,-53.5625,-177.48438
1664286656899,0.53466797,0.86468506,-0.61016846,42.796875,-48.25,-44.65625
1664286656982,0.5488281,0.963562,-0.5586548,25.125,-30.796875,-16.90625
1664286656991,0.34375,0.47991943,-0.3352661,62.15625,-7.765625,-49.921875
1664286657021,0.16870117,0.324646,-0.13702393,47.515625,17.125,-3.53125
1664286657096,0.18676758,0.3361206,-0.10723877,45.890625,29.390625,-2.34375
1664286657112,0.29614258,0.3085327,0.17132568,66.203125,23.65625,10.453125
1664286657147,0.25463867,0.20965576,-0.1572876,52.90625,8.5,-28.0625
1664286657214,0.09765625,0.463562,-0.19732666,52.875,71.234375,7.03125
1664286657217,0.63256836,0.6288452,-0.08795166,37.25,50.578125,-26.671875
1664286657292,1.6787109,0.38250732,0.23138428,88.59375,65.296875,4.421875
1664286657312,1.999939,0.79681396,0.5326538,22.25,34.59375,-10.484375
1664286657334,1.999939,1.0551147,1.2579956,97.3125,8.3125,-5.8125
1664286657409,1.8999023,0.66278076,1.2011108,68.234375,-73.84375,1.421875
1664286657425,1.4909668,0.6749878,0.92230225,85.015625,-168.42188,-43.4375
1664286657455,0.8027344,0.6322632,0.64056396,73.546875,-217.53125,-56.9375
1664286657500,0.017089844,0.74871826,-0.5286255,-2.078125,-233.40625,-35.984375
1664286657534,-0.14746094,1.5563354,-1.6123657,-34.703125,-113.953125,44.234375
1664286657575,-0.40185547,1.5045776,-1.9934692,105.96875,-103.890625,26.109375
1664286657624,0.23095703,1.2453003,-1.7122192,131.09375,0.359375,80.6875
1664286657649,0.15063477,-0.18389893,-0.89019775,188.79688,67.671875,84.828125
1664286657731,0.66845703,-0.7036743,-0.678772,48.796875,197.48438,204.89062
1664286657743,1.999939,-2.0,0.07489014,102.21875,214.5,110.40625
1664286657769,1.999939,-2.0,0.05316162,10.78125,212.10938,98.734375
1664286657851,1.999939,-2.0,1.2650757,-85.78125,101.296875,47.15625
1664286657854,1.999939,-1.65802,1.5836792,-99.453125,-39.859375,-7.640625
1664286657920,1.999939,-0.90509033,0.7387085,-212.04688,-39.609375,56.421875
1664286657938,1.999939,0.10809326,-0.6699829,-212.90625,-241.64062,-54.046875
1664286657964,1.3547363,0.7289429,-1.5603638,-174.85938,-226.70312,-65.359375
1664286658039,-0.2163086,1.999939,-2.0,-57.265625,-234.54688,-62.828125
1664286658055,-1.5981445,1.999939,-2.0,74.828125,29.625,-13.359375
1664286658084,-0.3996582,0.76776123,-1.2608032,252.84375,127.9375,-51.53125
1664286658159,0.9345703,-0.88482666,-0.7420044,195.90625,226.21875,38.546875
1664286658174,1.999939,-2.0,1.1200562,195.09375,160.71875,-0.203125
1664286658204,1.999939,-2.0,1.999939,-15.609375,75.34375,102.3125
1664286658281,1.999939,-2.0,1.999939,-143.21875,-132.04688,49.984375
1664286658288,1.5078125,-1.2554321,-0.09967041,-216.28125,-237.25,33.203125
1664286658357,0.54003906,0.46844482,-1.7271118,-190.89062,-260.5,10.59375
1664286658375,-1.0612793,1.9081421,-2.0,-88.6875,-179.5625,22.140625
1664286658401,-1.1921387,1.999939,-2.0,33.265625,-14.671875,19.3125
1664286658476,-0.1928711,1.0687866,-1.4490356,230.59375,143.59375,52.953125
1664286658488,1.2739258,-1.1311646,-0.29327393,183.20312,181.21875,47.421875
1664286658526,1.999939,-2.0,1.7423706,72.078125,277.76562,107.40625
1664286658568,1.999939,-2.0,1.999939,7.703125,10.328125,-24.421875
1664286658598,1.999939,-1.2732544,1.999939,-90.5625,-113.390625,36.046875
1664286658669,1.5056152,-0.567688,0.10101318,-112.953125,-192.89062,23.359375
1664286658686,0.8330078,-0.15020752,-1.107727,-120.625,-211.8125,-2.625
1664286658715,-0.47631836,0.84783936,-1.9746704,-85.03125,-188.09375,-40.09375
1664286658793,-0.77783203,1.8136597,-2.0,45.71875,-151.34375,-104.421875
1664286658806,-0.98217773,1.3768921,-2.0,139.82812,95.0,23.0625
1664286658834,0.296875,-0.7810669,-0.8977661,250.35938,198.5625,-6.5625
1664286658909,1.999939,-2.0,1.9030151,115.15625,194.98438,28.734375
1664286658912,1.999939,-1.7935181,1.999939,0.140625,112.421875,70.34375
1664286658954,1.999939,-1.3101196,1.999939,-92.859375,-95.59375,25.71875
1664286659032,1.0952148,-0.70025635,0.5578003,-137.03125,-191.17188,32.796875
1664286659036,-0.22021484,0.18719482,-1.4299927,-174.14062,-172.76562,53.140625
1664286659123,-1.574707,1.6747437,-2.0,-74.5625,-117.0625,27.734375
1664286659143,-1.3911133,1.4298706,-1.866272,33.671875,33.40625,76.265625
1664286659151,-0.94970703,1.0245972,-1.7676392,87.125,125.71875,-8.0
1664286659228,1.0622559,-0.395813,0.28997803,159.01562,238.625,57.5625
1664286659240,1.999939,-1.2376099,1.999939,18.078125,157.40625,-17.078125
1664286659279,1.999939,-0.28497314,1.999939,-72.765625,95.71875,107.109375
1664286659345,1.999939,0.25579834,1.6932983,-40.140625,-149.1875,26.6875
1664286659349,0.77905273,0.10809326,0.070007324,-61.953125,-175.32812,30.4375
1664286659419,-0.053955078,0.053894043,-0.70806885,-47.15625,-169.375,-1.09375
1664286659434,-1.1875,0.67108154,-2.0,-47.046875,-132.79688,-11.421875
1664286659467,-1.4501953,0.9723511,-2.0,62.40625,8.3125,-17.59375
1664286659543,-0.859375,-0.20904541,-1.5112915,147.0,108.859375,-42.484375
1664286659557,0.48583984,-0.92926025,0.25360107,149.60938,229.48438,-27.40625
1664286659592,1.999939,-2.0,1.999939,58.84375,149.51562,-53.78125
1664286659664,1.999939,-0.5586548,1.999939,-107.203125,41.140625,52.9375
1664286659666,1.999939,0.08465576,1.5119019,-55.0,-180.73438,9.6875
1664286659735,0.50024414,0.043395996,-0.3501587,-89.71875,-194.26562,29.5
1664286659752,-1.1035156,0.31341553,-2.0,-91.953125,-209.67188,-18.53125
1664286659782,-2.0,0.9406128,-2.0,-66.890625,-75.34375,6.1875
1664286659858,-1.7431641,0.89227295,-2.0,16.296875,125.1875,24.25
1664286659873,-0.63134766,0.020690918,-1.6001587,141.65625,168.92188,-48.796875
1664286659899,1.6333008,-0.21295166,0.65301514,73.953125,353.09375,59.078125
1664286659975,1.999939,-0.2913208,1.999939,-4.796875,165.0625,-41.5
1664286659990,1.999939,1.4594116,1.999939,-60.734375,35.515625,56.90625
1664286660024,1.999939,0.37738037,1.6325073,72.78125,-193.0,53.375
1664286660066,0.6726074,-0.34918213,-0.1651001,-8.65625,-225.96875,42.46875
1664286660095,-1.0415039,-0.70269775,-2.0,-49.90625,-181.42188,11.8125
1664286660140,-1.7353516,0.23040771,-2.0,-46.203125,-62.15625,-42.265625
1664286660223,-1.4060059,0.06585693,-2.0,69.6875,108.5,-41.8125
1664286660227,-0.23852539,-0.6602173,-1.0996704,154.25,128.92188,-106.890625
1664286660289,1.3825684,-0.92315674,0.6137085,106.609375,242.65625,-36.546875
1664286660365,1.999939,-1.2988892,1.999939,1.65625,127.890625,-49.140625
1664286660369,1.999939,0.08807373,1.999939,-80.828125,-47.046875,28.03125
1664286660379,1.999939,0.24139404,1.229187,-45.796875,-212.1875,16.828125
1664286660410,0.60668945,-0.15338135,-0.16021729,-44.609375,-247.40625,3.28125
1664286660485,-1.277832,0.23382568,-2.0,-99.046875,-216.73438,-30.140625
1664286660501,-2.0,1.6532593,-2.0,-49.96875,-48.703125,-15.84375
1664286660528,-1.2851562,0.43182373,-2.0,97.640625,128.84375,7.390625
1664286660607,-0.11621094,-0.18609619,-1.130188,124.296875,138.125,-39.59375
1664286660619,1.3581543,-0.3093872,0.50408936,85.46875,223.375,42.09375
1664286660650,1.999939,-0.95758057,1.999939,55.203125,89.9375,4.6875
1664286660725,1.999939,-0.3657837,1.999939,-17.484375,39.625,90.078125
1664286660728,1.999939,-0.19390869,1.999939,-15.34375,-138.5,31.96875
1664286660803,1.3293457,-0.19586182,0.9598999,-53.546875,-170.95312,35.9375
1664286660815,-0.3725586,-0.2107544,-0.9837036,-82.203125,-171.79688,30.609375
1664286660845,-1.6853027,0.5758667,-2.0,-80.609375,-89.34375,-25.203125
1664286660919,-1.4645996,0.58929443,-2.0,51.703125,101.15625,-11.171875
1664286660935,-0.28125,-0.77545166,-1.5230103,177.17188,161.35938,-49.8125
1664286660965,1.0317383,-0.9277954,0.18035889,92.546875,205.28125,-16.625
1664286661041,1.999939,-1.6482544,1.999939,10.28125,146.875,0.953125
1664286661057,1.999939,-0.41363525,1.999939,-79.296875,9.203125,40.796875
1664286661085,1.999939,-0.17901611,1.8607788,-36.59375,-202.3125,-4.671875
1664286661162,0.9663086,-0.21881104,-0.031799316,-70.390625,-201.10938,8.890625
1664286661167,-0.67871094,0.0036010742,-1.6087036,-92.9375,-181.76562,-5.03125
1664286661236,-2.0,0.8505249,-2.0,-60.1875,-129.90625,-39.765625
1664286661252,-1.8029785,0.9491577,-2.0,23.875,103.328125,-0.109375
1664286661279,-0.45654297,0.22845459,-1.3347778,136.34375,132.46875,-62.65625
1664286661358,1.0053711,-0.35235596,-0.050842285,155.4375,229.03125,-11.59375
1664286661372,1.999939,-1.4172974,1.999939,50.375,158.89062,23.5
1664286661406,1.999939,-0.7241821,1.999939,-39.296875,19.515625,34.453125
1664286661479,1.999939,0.078308105,1.999939,-86.328125,-99.765625,78.59375
1664286661483,0.6965332,-0.03692627,0.463562,-61.484375,-154.125,84.890625
1664286661552,-1.2561035,0.10614014,-1.0112915,-77.796875,-156.32812,46.984375
1664286661567,-2.0,1.1102905,-2.0,-61.984375,-41.109375,7.453125
1664286661596,-1.1728516,0.6642456,-2.0,99.28125,100.859375,-25.578125
1664286661671,0.18579102,-0.48590088,-1.1438599,139.40625,168.14062,-53.921875
1664286661685,1.999939,-0.8208618,0.1005249,92.625,233.48438,-2.03125
1664286661715,1.999939,-1.2175903,1.999939,54.4375,59.84375,-46.21875
1664286661790,1.999939,-0.044006348,1.999939,-80.90625,26.546875,101.25
1664286661794,1.999939,0.3078003,1.3378296,-25.921875,-158.0625,62.171875
1664286661869,0.26757812,0.0602417,0.1696167,-37.421875,-163.14062,82.609375
1664286661884,-1.5283203,0.47943115,-1.0291138,-66.234375,-110.9375,58.15625
1664286661910,-1.7429199,1.4301147,-1.9788208,39.09375,-19.296875,-17.5625
1664286661985,-0.3779297,0.4406128,-1.5855103,167.01562,142.96875,34.125
1664286662000,1.1298828,-0.3237915,-0.38604736,155.46875,179.67188,41.390625
1664286662037,1.999939,-0.5523071,1.9645386,110.671875,69.109375,43.3125
1664286662108,1.999939,-0.23809814,1.999939,0.328125,12.265625,130.60938
1664286662123,0.59887695,0.42547607,0.6749878,-38.515625,-49.46875,120.375
1664286662166,-0.20288086,1.3505249,-0.56500244,-53.5,-16.296875,85.40625
1664286662197,-0.1538086,1.9581909,-1.6089478,36.9375,106.375,43.140625
1664286662226,1.795166,1.1500854,-1.3599243,194.84375,170.28125,-22.1875
1664286662300,1.999939,0.21697998,0.20233154,193.76562,116.25,55.921875
1664286662321,1.999939,-1.0003052,1.999939,168.9375,-21.046875,79.234375
1664286662345,1.999939,-0.85601807,1.9620972,11.078125,-112.1875,128.0625
1664286662419,0.66796875,-0.14141846,0.3866577,-44.125,-118.40625,146.3125
1664286662435,-0.123291016,0.49090576,-0.5628052,-35.640625,-139.07812,84.765625
1664286662464,-0.9621582,1.4596558,-1.8320923,-41.4375,-63.875,86.203125
1664286662542,-0.49072266,1.4786987,-2.0,100.09375,73.21875,30.390625
1664286662546,0.4880371,0.06390381,-1.03302,208.20312,144.25,35.703125
1664286662620,1.7087402,-1.4141235,1.0490112,183.82812,134.95312,19.328125
1664286662629,1.999939,-1.8396606,1.999939,16.71875,53.03125,61.609375
1664286662664,1.999939,-0.7583618,1.999939,-87.59375,-27.875,94.671875
1664286662746,1.3066406,-0.09918213,0.8734741,-74.96875,-120.734375,82.09375
1664286662759,-0.32641602,-0.1987915,-0.105285645,-33.65625,-165.67188,38.328125
1664286662797,-1.6135254,1.0253296,-1.4822388,-78.8125,-115.34375,-16.953125
1664286662825,-1.5368652,1.7304077,-2.0,75.4375,68.5,1.375
1664286662902,-0.12890625,-0.13873291,-1.135315,199.0625,207.85938,17.28125
1664286662908,1.999939,-1.598938,1.5067749,164.03125,99.3125,-87.515625
1664286662983,1.999939,-1.7979126,1.999939,36.078125,10.875,44.734375
1664286662988,1.4506836,-0.93927,1.999939,-103.40625,-77.984375,71.828125
1664286663021,0.0769043,-0.026184082,0.27508545,-129.6875,-95.171875,96.390625
1664286663095,-1.2636719,1.163269,-1.1004028,-105.9375,-76.0,65.578125
1664286663098,-1.4985352,1.8012085,-1.6116333,75.84375,26.4375,-36.921875
1664286663171,-0.20385742,0.14056396,-0.4837036,178.95312,186.40625,-23.578125
1664286663183,1.9006348,-1.3074341,1.6930542,104.453125,97.1875,-38.515625
1664286663216,1.9221191,-0.48614502,1.5126343,-25.453125,66.1875,6.9375
1664286663290,1.5405273,-0.009094238,1.0106812,-22.296875,50.453125,46.203125
1664286663294,0.8679199,0.018249512,0.5360718,-5.984375,-2.0,9.375
1664286663365,0.5678711,0.061950684,0.30755615,-9.3125,9.078125,14.9375
1664286663382,0.7258301,-0.028869629,0.38641357,-11.421875,25.203125,38.4375
1664286663412,0.6411133,-0.15679932,0.40618896,5.53125,-45.921875,-30.046875
1664286663487,0.86694336,-0.057678223,0.44940186,-23.421875,47.296875,12.390625
1664286663506,1.4831543,0.06488037,0.73724365,-29.09375,60.65625,21.796875
1664286663530,1.4506836,0.10076904,0.7814331,-19.625,-6.203125,-21.46875
1664286663605,1.0793457,0.19769287,0.5878296,-32.4375,33.359375,32.953125
1664286663608,0.8120117,0.23968506,0.60565186,7.4375,-7.34375,-7.21875
1664286663681,0.73779297,0.23724365,0.5692749,7.90625,-12.34375,-3.921875
1664286663697,0.6303711,0.24676514,0.51776123,11.03125,-9.71875,4.09375
1664286663729,0.7116699,0.262146,0.50897217,8.765625,-18.921875,-15.015625
1664286663800,0.79003906,0.25408936,0.49163818,-1.875,-4.9375,-1.390625
1664286663815,0.9123535,0.2723999,0.508728,-13.671875,-5.453125,-7.359375
1664286663846,0.75219727,0.34417725,0.5380249,-7.921875,1.71875,10.8125
1664286663920,0.67456055,0.3012085,0.5475464,0.640625,-11.4375,-7.265625
1664286663939,0.75878906,0.28533936,0.5897827,5.625,-4.984375,-6.0625
1664286663967,0.7998047,0.2584839,0.56365967,-13.1875,-4.4375,4.140625
1664286664040,0.70092773,0.33172607,0.57147217,-1.5625,-4.203125,0.984375
1664286664045,0.7104492,0.26019287,0.7279663,-0.3125,12.203125,16.671875
1664286664118,0.8063965,0.17889404,1.4713745,16.9375,9.703125,4.5
1664286664130,1.7272949,-0.7998657,1.999939,-25.921875,22.21875,39.703125
1664286664160,1.999939,-0.989563,1.999939,-121.03125,3.046875,38.421875
1664286664236,1.999939,-0.45367432,0.83270264,-204.57812,16.90625,122.4375
1664286664251,1.8789062,-0.5288696,-0.45343018,-125.53125,-157.23438,44.28125
1664286664281,1.2067871,-0.93878174,-1.4175415,-166.78125,-105.734375,89.296875
1664286664372,0.16918945,-0.5310669,-1.7693481,-143.9375,-120.34375,69.859375
1664286664377,-0.24389648,-0.11529541,-1.5630493,-121.8125,-72.5625,67.625
1664286664401,-0.65527344,0.46746826,-1.3826294,-80.0625,-65.515625,15.15625
1664286664475,-0.5695801,0.79119873,-0.9819946,-37.546875,-30.90625,26.09375
1664286664478,-0.59887695,0.8290405,-0.9187622,-16.40625,-48.484375,-25.21875
1664286664557,-0.33911133,1.0665894,-0.5408325,-22.234375,8.0,21.34375
1664286664567,-0.203125,0.95477295,-0.5088501,-11.84375,-15.390625,-4.046875
1664286664598,-0.114746094,1.0675659,-0.4541626,-19.296875,-1.671875,-6.359375
1664286664672,0.09375,1.1183472,-0.49127197,-2.40625,0.078125,-14.140625
1664286664684,0.16625977,1.0018921,-0.34698486,-0.875,10.625,11.640625
1664286664717,0.055908203,1.0463257,-0.6362915,7.90625,-19.6875,-21.8125
1664286664788,0.140625,1.2738647,-0.9302368,40.03125,14.25,11.515625
1664286664791,0.52075195,1.0805054,-1.3565063,88.046875,19.09375,11.1875
1664286664868,0.67993164,1.039978,-1.9070435,168.14062,51.296875,83.078125
1664286664882,0.41845703,0.46429443,-0.9133911,217.46875,65.046875,72.890625
1664286664915,0.68359375,0.9579468,0.30682373,159.3125,72.078125,86.859375
1664286664984,0.6760254,0.70233154,0.9269409,189.90625,49.265625,91.859375
1664286665000,0.86743164,0.5145874,1.4716187,161.73438,7.375,103.25
1664286665029,-0.037353516,-0.6465454,1.312439,170.98438,-3.921875,96.328125
1664286665106,-0.12109375,-1.0940552,1.0392456,142.39062,-9.828125,17.1875
1664286665112,-0.4699707,-0.8369751,0.7008667,100.265625,23.578125,48.984375
1664286665183,-0.4206543,-0.8777466,0.5223999,88.6875,28.953125,-33.0
1664286665212,-0.115722656,-0.4661255,0.56585693,68.1875,53.671875,-5.71875
1664286665227,-0.12548828,-0.6243286,0.8019409,67.59375,18.328125,-45.828125
1664286665301,0.18554688,-0.5606079,0.6630249,-20.375,6.375,-10.5
1664286665318,-0.2421875,-0.16925049,0.6273804,26.703125,-30.296875,2.234375
1664286665347,-0.13476562,-0.32330322,0.7555542,38.203125,-2.59375,36.71875
1664286665420,-0.051757812,-0.28570557,0.6762085,73.296875,-27.734375,-18.21875
1664286665424,-0.40161133,-0.58917236,0.59124756,75.953125,-23.515625,-8.53125
1664286665595,-0.43139648,-0.678772,0.54608154,75.453125,-1.984375,13.15625
1664286665610,-0.52001953,-0.90826416,0.7206421,65.71875,1.390625,7.578125
1664286665613,-0.5578613,-0.77911377,0.2506714,66.46875,18.296875,11.515625
1664286665617,-0.3173828,-1.0252075,0.559021,43.40625,40.3125,41.828125
1664286665631,-0.05810547,-1.1983032,0.4557495,-7.234375,11.96875,21.453125
1664286665662,0.26342773,-1.102356,0.777771,-23.09375,17.65625,48.0625
1664286665736,0.8725586,-0.71539307,0.6364136,-42.3125,-12.75,33.46875
1664286665756,0.50878906,-0.70391846,0.6708374,-52.84375,-18.921875,86.375
1664286665781,0.072753906,-1.1768188,0.5338745,-75.53125,-39.8125,39.84375
1664286665856,0.09692383,-0.8340454,0.35003662,-84.59375,-50.359375,-11.34375
1664286665859,-0.10473633,-0.8394165,0.35369873,-97.875,-32.546875,27.78125
1664286665929,-0.19897461,-0.5081177,0.4935913,-130.625,-22.546875,5.28125
1664286665945,-0.042236328,-0.30743408,0.32318115,-150.48438,-11.25,-11.6875
1664286665976,-0.24609375,0.073913574,0.75115967,-150.125,17.515625,8.140625
1664286666054,-0.15112305,0.16497803,1.0126343,-140.21875,30.953125,-28.9375
1664286666066,0.3815918,0.6227417,0.9801636,-173.15625,37.671875,-73.375
1664286666098,0.40527344,1.2147827,0.49725342,-126.3125,27.59375,-8.59375
1664286666172,0.39086914,1.1654663,0.79730225,-36.90625,49.84375,-5.671875
1664286666175,0.24731445,0.8265991,0.87957764,-39.78125,19.640625,-1.59375
1664286666245,0.021240234,1.1708374,0.5531616,-28.375,26.296875,21.453125
1664286666262,-0.18237305,1.4469604,0.40496826,18.4375,52.078125,46.46875
1664286666290,-0.2331543,1.5512085,0.6378784,83.6875,79.515625,87.984375
1664286666366,0.07885742,1.5563354,0.66156006,82.40625,69.953125,55.625
1664286666380,0.33154297,1.0314331,0.49847412,127.921875,85.59375,122.03125
1664286666411,0.39233398,0.2579956,0.7501831,90.125,75.421875,112.140625
1664286666485,0.9758301,0.10638428,0.55999756,93.421875,47.140625,80.5
1664286666490,0.70410156,-0.34088135,0.838562,80.21875,49.28125,101.28125
1664286666564,0.73657227,-0.16461182,0.66326904,16.171875,28.171875,78.765625
1664286666575,0.59814453,-0.035705566,0.8480835,13.078125,23.75,76.34375
1664286666614,0.36206055,-0.1362915,1.0507202,-5.15625,9.796875,10.671875
1664286666679,0.3310547,0.21990967,0.9015503,-24.984375,4.5,20.515625
1664286666695,0.2368164,0.2592163,1.0490112,-19.3125,8.4375,7.171875
1664286666740,0.37573242,0.4389038,1.0421753,-31.109375,-11.296875,-13.40625
1664286666771,0.1875,0.35101318,0.92181396,-34.578125,-6.109375,10.125
1664286666847,0.32763672,0.3612671,0.8673706,-30.03125,0.71875,-0.9375
1664286666853,0.5102539,0.32977295,0.9911499,-60.1875,-19.46875,-13.296875
1664286666922,0.37231445,0.5661011,0.3788452,-128.70312,-15.625,-14.765625
1664286666925,0.7006836,0.31048584,0.3444214,-94.0625,-26.375,-136.375
1664286666982,1.2924805,0.7211304,0.38397217,-129.32812,8.84375,-94.0
1664286667010,1.999939,1.4552612,0.49188232,-131.84375,2.921875,-106.53125
1664286667040,1.999939,1.999939,0.7382202,-19.21875,-134.875,-95.59375
1664286667086,1.527832,1.236023,0.26507568,21.65625,-182.45312,-5.640625
1664286667135,0.30566406,0.3649292,-0.47149658,42.96875,-240.75,-91.859375
1664286667161,-0.7236328,0.32537842,-0.71710205,27.71875,-236.67188,-109.890625
1664286667235,-2.0,0.27020264,-1.3469849,-111.96875,-65.71875,-12.546875
1664286667238,-1.7897949,0.5101929,-1.2236938,72.25,43.78125,-91.09375
1664286667309,-0.3864746,-0.07110596,-0.72735596,45.546875,176.64062,-73.5625
1664286667326,1.999939,-0.022521973,0.48968506,61.40625,179.14062,-84.125
1664286667372,1.999939,-0.14337158,1.999939,68.640625,0.78125,-60.125
1664286667402,1.999939,-0.21270752,1.999939,-98.515625,-39.96875,101.3125
1664286667476,0.6784668,0.09588623,0.29852295,-147.8125,-95.71875,111.609375
1664286667481,-2.0,0.9557495,-1.6887817,-96.046875,-69.3125,15.03125
1664286667551,-1.7145996,0.7238159,-1.8032837,31.859375,133.9375,-92.9375
1664286667569,1.3618164,-0.41583252,-0.32843018,126.265625,176.04688,-117.84375
1664286667595,1.999939,-0.46783447,1.999939,47.828125,74.15625,-46.203125
1664286667672,1.999939,-0.108947754,1.7106323,-96.96875,-60.171875,145.85938
1664286667747,1.0908203,-0.27545166,0.06878662,-56.5625,-148.78125,119.515625
1664286667750,-1.2705078,0.28948975,-1.036438,-71.65625,-134.84375,61.65625
1664286667762,-2.0,0.4911499,-1.5335083,10.671875,65.28125,-22.9375
1664286667791,-0.14428711,-0.50250244,-1.0374146,138.84375,129.65625,-193.4375
1664286667870,1.999939,-0.49542236,-0.37554932,68.078125,176.10938,-156.53125
1664286667882,1.999939,-0.55303955,1.999939,49.296875,38.796875,-107.421875
1664286667911,1.999939,-0.17681885,1.9437866,-115.921875,-70.390625,118.4375
1664286667988,1.9709473,0.12445068,0.04071045,-108.9375,-140.46875,140.95312
1664286667993,0.2932129,-0.27593994,-0.442688,-50.40625,-191.875,75.109375
1664286668062,-1.8759766,0.24456787,-1.1192017,-68.875,-160.34375,16.546875
1664286668076,-2.0,1.024353,-2.0,-32.421875,26.40625,-3.0
1664286668106,-1.1584473,0.17889404,-1.7322388,140.51562,147.15625,-109.40625
1664286668180,1.1518555,-0.7034302,-0.7439575,127.96875,184.46875,-137.54688
1664286668196,1.999939,-0.70635986,1.999939,112.734375,81.546875,-84.28125
1664286668225,1.999939,-0.38311768,1.999939,-19.421875,-55.734375,112.8125
1664286668305,1.999939,0.027526855,0.5751343,-57.453125,-161.625,150.96875
1664286668311,0.70458984,-0.20953369,-0.39312744,4.984375,-246.375,87.515625
1664286668375,-1.095459,0.05316162,-0.8821411,-27.359375,-261.29688,-2.359375
1664286668389,-2.0,1.2941284,-1.4473267,-57.96875,-63.015625,5.609375
1664286668421,-1.795166,1.1046753,-1.5234985,52.1875,114.625,-39.734375
1664286668500,-0.24316406,-0.11065674,-1.4070435,149.54688,192.23438,-119.015625
1664286668511,1.5405273,-0.9505005,-1.2090454,106.015625,282.53125,-53.21875
1664286668544,1.999939,-1.159729,1.1908569,108.046875,139.03125,-111.890625
1664286668617,1.999939,-1.0501099,1.999939,39.75,-74.40625,44.265625
1664286668632,1.999939,-0.8284302,0.8307495,-68.421875,-147.17188,125.109375
1664286668665,0.9038086,-0.44586182,-0.35992432,-75.953125,-193.76562,89.8125
1664286668742,-0.19091797,-0.4595337,-0.70147705,-35.4375,-217.65625,45.875
1664286668748,-1.8845215,0.2753296,-1.2346802,-93.578125,-178.25,-10.859375
1664286668813,-2.0,1.3287964,-1.8616333,-47.0625,-7.875,-56.53125
1664286668827,-1.3330078,0.34368896,-1.6677856,197.39062,110.515625,-101.0
1664286668862,-0.009765625,-0.9338989,-1.7356567,223.375,251.48438,-96.1875
1664286668931,1.999939,-2.0,-0.9690552,167.5,347.5,-46.09375
1664286668950,1.999939,-2.0,1.999939,72.15625,49.359375,-147.78125
1664286668981,1.999939,-2.0,1.999939,-68.234375,-42.59375,115.609375
1664286669049,1.999939,-1.036438,0.59417725,-155.04688,-155.20312,117.328125
1664286669054,1.4716797,-0.74542236,-0.78912354,-122.171875,-252.125,78.25
1664286669125,-0.23095703,-0.52716064,-1.5203247,-123.171875,-279.375,48.390625
1664286669139,-1.8522949,0.015563965,-1.9226685,-112.28125,-241.76562,-24.078125
1664286669170,-2.0,1.2367554,-2.0,-142.23438,-30.78125,21.59375
1664286669248,-2.0,1.0302124,-2.0,141.125,97.3125,-100.171875
1664286669264,-0.07910156,-1.2341919,-1.7832642,316.01562,175.3125,-81.796875
1664286669294,1.1586914,-1.6919556,-0.67974854,153.04688,312.98438,-15.765625
1664286669336,1.999939,-2.0,1.0123901,146.82812,206.34375,-80.21875
1664286669387,1.999939,-2.0,1.999939,-7.171875,22.421875,-9.359375
1664286669414,1.999939,-1.0320435,1.9857788,-104.640625,-49.03125,135.90625
1664286669488,1.999939,-0.5388794,0.23602295,-99.953125,-235.28125,64.859375
1664286669495,0.92041016,-0.66607666,-0.84039307,-105.765625,-249.15625,90.265625
1664286669566,-0.9157715,-0.6213989,-1.4949341,-119.59375,-223.76562,68.0
1664286669576,-2.0,0.82806396,-2.0,-156.71875,-104.375,22.375
1664286669610,-2.0,1.0724487,-2.0,57.65625,83.03125,-59.765625
1664286669684,-0.94384766,-0.4414673,-2.0,174.29688,231.04688,-80.1875
1664286669700,1.4748535,-1.9475708,-1.3982544,182.07812,306.73438,-87.203125
1664286669726,1.999939,-2.0,0.37713623,104.84375,245.54688,-117.09375
1664286669804,1.999939,-1.4519653,1.999939,9.109375,113.015625,13.796875
1664286669810,1.999939,-0.8855591,1.7526245,-27.453125,-93.921875,80.234375
1664286669875,1.999939,-0.64019775,0.3805542,-101.03125,-209.26562,87.078125
1664286669890,1.5981445,-0.54156494,-0.5479126,-80.265625,-253.35938,109.359375
1664286669921,0.07055664,-0.6880493,-1.1760864,-80.75,-281.98438,53.640625
1664286669999,-2.0,-0.12286377,-2.0,-114.609375,-256.125,-32.0625
1664286670013,-2.0,1.7423706,-2.0,-88.296875,-37.65625,-79.1875
1664286670045,-1.5305176,0.26800537,-2.0,272.57812,134.5625,-128.3125
1664286670119,0.2734375,-1.7542114,-2.0,283.73438,276.14062,-89.90625
1664286670126,1.999939,-2.0,-0.6897583,134.0625,355.60938,-35.984375
1664286670206,1.999939,-2.0,1.999939,111.671875,105.921875,-67.46875
1664286670209,1.999939,-2.0,1.999939,-74.15625,-94.328125,59.390625
1664286670235,1.999939,-1.171936,0.4664917,-163.40625,-160.95312,127.15625
1664286670311,1.3564453,-0.8245239,-0.87872314,-131.46875,-248.35938,117.140625
1664286670325,-0.2265625,-0.55548096,-1.4429321,-118.53125,-262.375,74.5625
1664286670354,-2.0,0.7382202,-1.6116333,-101.84375,-174.0625,8.71875
1664286670431,-2.0,1.2875366,-1.3557739,9.828125,-22.546875,-31.890625
1664286670444,-1.8598633,0.9611206,-1.5779419,51.4375,152.84375,-12.734375
1664286670474,-0.57910156,-0.19024658,-1.5357056,189.42188,198.35938,-122.625
1664286670550,0.99560547,-1.2827759,-1.3042603,177.01562,305.42188,-64.109375
1664286670554,1.999939,-2.0,0.25531006,87.8125,270.23438,-98.296875
1664286670625,1.999939,-1.7888794,1.999939,-6.1875,7.125,-38.25
1664286670639,1.999939,-1.1433716,1.5487671,-106.078125,-117.234375,92.0625
1664286670669,1.9333496,-0.6177368,-0.27642822,-131.89062,-191.25,103.515625
1664286670745,0.6750488,-0.47320557,-0.95806885,-125.40625,-228.95312,88.65625
1664286670763,-0.2084961,-0.19366455,-0.92144775,-82.125,-218.26562,27.828125
1664286670789,-0.9182129,0.277771,-0.9133911,-74.3125,-196.07812,-38.71875
1664286670864,-2.0,1.5402222,-1.774231,-96.828125,-59.5,-31.453125
1664286670873,-1.4797363,1.2208862,-1.4365845,179.15625,23.9375,-156.75
1664286670939,-0.5620117,-0.2637329,-0.8897095,210.03125,154.84375,-121.0
1664286670953,0.8671875,-0.76690674,-0.30303955,136.78125,257.34375,-59.046875
1664286670984,1.999939,-1.2522583,0.684021,134.60938,165.85938,-103.046875
1664286671059,1.999939,-1.7671509,1.999939,45.5625,49.40625,-53.140625
1664286671074,1.999939,-1.3880005,1.999939,-78.90625,-67.28125,57.4375
1664286671105,1.6308594,-0.6980591,0.48529053,-128.76562,-155.375,75.421875
1664286671200,0.34521484,-0.29986572,-0.3694458,-118.375,-187.90625,63.375
1664286671206,-0.3713379,-0.09136963,-0.5232544,-85.484375,-192.20312,-1.046875
1664286671225,-1.3476562,0.46209717,-0.9229126,-84.15625,-179.26562,-34.953125
1664286671302,-2.0,1.4523315,-1.7280884,-91.921875,8.265625,-22.140625
1664286671305,-1.3676758,0.99383545,-1.4629517,140.09375,126.671875,-58.609375
1664286671379,-0.30639648,-0.55133057,-1.1445923,211.84375,224.34375,-78.984375
1664286671392,1.5756836,-1.142395,-0.46051025,131.53125,279.39062,-64.203125
1664286671428,1.999939,-1.4651489,1.1681519,88.296875,135.95312,-73.59375
1664286671498,1.999939,-1.4668579,1.999939,17.96875,-3.4375,38.375
1664286671511,1.999939,-0.9273071,1.1959839,-62.0625,-109.375,102.265625
1664286671546,1.0993652,-0.4451294,0.019958496,-84.984375,-153.3125,100.15625
1664286671586,0.1184082,-0.22930908,-0.21710205,-72.921875,-174.25,72.453125
1664286671619,-0.76123047,0.16009521,-0.30377197,-68.71875,-137.59375,21.109375
1664286671663,-1.7214355,0.7369995,-0.38946533,-35.953125,-89.125,-32.078125
1664286671708,-2.0,0.8082886,-0.87213135,13.78125,41.84375,-85.796875
1664286671736,-0.4638672,0.07269287,-0.78375244,122.078125,157.59375,-127.96875
1664286671809,1.2634277,-0.47784424,-0.22662354,99.21875,218.6875,-64.265625
1664286671824,1.999939,-0.49591064,0.60809326,20.984375,85.34375,-119.140625
