# Sensor type: Respeck
# Activity type: Climbing stairs
# Activity code: 12
# Subject id: s1957945
# Notes: 
timestamp,accel_x,accel_y,accel_z,gyro_x,gyro_y,gyro_z
1664986642851,0.05444336,-0.94366455,0.28729248,-3.5,-5.09375,-1.015625
1664986642889,0.040771484,-0.9380493,0.32122803,0.203125,-2.03125,-0.453125
1664986642923,0.037109375,-0.94073486,0.33221436,0.1875,-3.6875,-0.125
1664986642963,0.025878906,-0.95758057,0.32635498,1.3125,-4.125,0.359375
1664986643009,0.032226562,-0.9380493,0.33953857,1.234375,-3.109375,0.09375
1664986643040,0.013671875,-0.95977783,0.34075928,1.375,-2.484375,0.140625
1664986643090,0.029296875,-0.96417236,0.31072998,-0.859375,-2.078125,0.0625
1664986643128,0.060546875,-0.9468384,0.3139038,0.796875,-0.484375,-0.234375
1664986643159,0.040527344,-0.9326782,0.30828857,0.953125,-1.390625,-0.25
1664986643204,0.018554688,-0.9578247,0.31341553,1.953125,-0.765625,-0.9375
1664986643234,0.042236328,-0.94073486,0.30194092,1.140625,-0.90625,-1.125
1664986643279,0.044921875,-0.9500122,0.30316162,1.28125,0.1875,-1.28125
1664986643325,0.042236328,-0.94244385,0.307312,1.453125,0.21875,-0.953125
1664986643357,0.049560547,-0.944397,0.30633545,1.03125,0.609375,-0.015625
1664986643400,0.04711914,-0.9368286,0.322937,4.546875,1.1875,1.078125
1664986643444,0.024414062,-0.96759033,0.32513428,0.03125,-1.359375,0.765625
1664986643474,0.037597656,-0.99664307,0.32733154,-0.796875,-1.609375,0.8125
1664986643519,0.06689453,-0.9546509,0.3324585,-1.203125,-3.125,1.140625
1664986643564,0.055419922,-0.93341064,0.30682373,1.46875,-4.578125,1.0
1664986643594,0.016357422,-0.9475708,0.29852295,2.171875,-3.625,-0.3125
1664986643640,0.021728516,-0.9517212,0.30047607,1.78125,-4.203125,-1.140625
1664986643679,0.036376953,-0.95513916,0.32000732,-0.546875,-3.9375,-0.78125
1664986643746,0.034179688,-0.9529419,0.31048584,-0.21875,-5.59375,-1.109375
1664986643758,0.03881836,-0.9578247,0.31195068,0.625,-4.734375,-1.484375
1664986643834,0.025390625,-0.9536743,0.3204956,0.484375,-3.578125,-1.125
1664986643842,0.02319336,-0.956604,0.32073975,1.421875,-3.484375,-0.5625
1664986643879,0.033691406,-0.9595337,0.31707764,1.71875,-1.375,-0.671875
1664986643910,0.03515625,-0.93707275,0.31488037,2.078125,-1.84375,-0.15625
1664986643953,0.020996094,-0.9458618,0.32513428,2.421875,-0.5625,-0.015625
1664986644001,-0.0021972656,-0.94537354,0.3126831,2.390625,-0.625,-0.21875
1664986644028,0.004638672,-0.9624634,0.30340576,1.828125,-1.171875,-0.671875
1664986644074,-0.013671875,-0.91607666,0.3427124,-1.140625,-1.78125,-0.78125
1664986644124,-0.05834961,-0.95684814,0.35784912,1.890625,-0.21875,1.515625
1664986644150,-0.037109375,-0.960022,0.35809326,0.171875,-0.4375,-0.046875
1664986644193,-0.022705078,-0.9429321,0.3348999,3.484375,0.0625,-0.3125
1664986644224,-0.04345703,-0.9356079,0.32635498,5.515625,2.140625,-0.109375
1664986644273,-0.032958984,-0.9221802,0.32147217,5.171875,1.890625,0.3125
1664986644314,-0.041015625,-0.93634033,0.3258667,5.671875,3.015625,0.4375
1664986644343,-0.067871094,-0.94732666,0.3366089,5.859375,4.828125,0.09375
1664986644393,-0.061035156,-0.94244385,0.33392334,5.78125,5.453125,-0.328125
1664986644436,-0.0637207,-0.9397583,0.33807373,4.4375,7.9375,-0.046875
1664986644465,-0.06323242,-0.9182739,0.35565186,3.234375,7.234375,0.546875
1664986644509,-0.07836914,-0.9402466,0.37542725,3.234375,8.359375,0.65625
1664986644557,-0.05883789,-0.9265747,0.38006592,0.921875,7.1875,1.421875
1664986644585,-0.0546875,-0.94244385,0.37200928,-1.390625,7.171875,1.03125
1664986644631,-0.023925781,-0.98516846,0.3944702,-2.484375,2.09375,0.984375
1664986644659,0.033447266,-1.0842896,0.35198975,1.171875,7.859375,0.515625
1664986644706,0.0715332,-1.017395,0.25408936,1.078125,10.984375,0.203125
1664986644750,0.063964844,-1.133606,0.28778076,-6.15625,4.0625,-2.515625
1664986644778,0.08325195,-1.0244751,0.2164917,1.71875,5.015625,-5.078125
1664986644824,0.18334961,-0.7852173,0.17962646,1.6875,4.0625,0.1875
1664986644876,0.16430664,-0.8364868,0.26361084,-4.1875,3.75,2.3125
1664986644907,0.076660156,-1.0437622,0.32562256,-4.265625,-4.09375,0.078125
1664986644945,0.10229492,-0.99884033,0.31951904,-6.3125,-9.296875,-4.65625
1664986644989,0.118652344,-0.9619751,0.35687256,-5.46875,-5.578125,-1.421875
1664986645020,0.080566406,-0.89630127,0.38250732,-3.703125,-1.671875,-0.8125
1664986645064,0.055419922,-0.8772583,0.3781128,-1.109375,-3.75,-0.390625
1664986645109,0.020507812,-0.8960571,0.3859253,-1.75,-2.34375,0.71875
1664986645142,0.05029297,-0.8809204,0.36663818,0.59375,-2.109375,0.46875
1664986645184,0.072021484,-0.86260986,0.33929443,2.828125,-1.25,2.453125
1664986645217,0.07421875,-0.86138916,0.3859253,5.953125,0.34375,5.109375
1664986645258,0.041748047,-0.9048462,0.40057373,3.0,-1.46875,4.625
1664986645306,0.026855469,-0.8731079,0.41815186,7.265625,-0.140625,1.234375
1664986645335,-0.02758789,-1.0186157,0.47210693,8.25,-0.125,0.078125
1664986645387,0.015136719,-1.0298462,0.4401245,10.796875,2.1875,-1.453125
1664986645425,0.07836914,-1.1611938,0.40130615,5.640625,4.59375,3.71875
1664986645456,0.106933594,-1.2749634,0.40179443,-8.71875,-0.484375,2.8125
1664986645503,0.14135742,-1.3067017,0.42230225,1.671875,-5.5,-1.625
1664986645548,0.1105957,-1.0293579,0.22601318,13.21875,0.90625,-5.09375
1664986645575,0.09277344,-1.0300903,0.101745605,8.453125,13.9375,-3.390625
1664986645622,0.109375,-0.9890747,0.14031982,8.390625,15.390625,-2.140625
1664986645649,0.14770508,-0.9710083,0.16864014,8.875,14.4375,4.671875
1664986645696,0.110839844,-0.9890747,0.19866943,8.1875,13.171875,4.765625
1664986645741,0.06542969,-0.87945557,0.1930542,9.15625,3.375,2.375
1664986645769,0.039794922,-0.8518677,0.21307373,5.953125,3.09375,1.203125
1664986645813,0.01977539,-0.75909424,0.18157959,4.21875,3.046875,0.484375
1664986645859,0.03564453,-0.7481079,0.17840576,6.296875,4.671875,0.796875
1664986645891,0.061523438,-0.7852173,0.19671631,9.421875,8.453125,1.71875
1664986645934,0.047607422,-0.82598877,0.27850342,4.84375,3.34375,1.078125
1664986645980,0.020019531,-0.95147705,0.21917725,1.5625,-3.171875,-1.765625
1664986646009,0.013183594,-0.97369385,0.23797607,4.984375,-2.828125,-3.0
1664986646055,0.0146484375,-1.1140747,0.23236084,2.21875,-2.5,-0.625
1664986646107,0.008544922,-1.2044067,0.35272217,-3.890625,-6.1875,-1.875
1664986646129,0.016845703,-1.234436,0.33343506,0.109375,-4.421875,1.984375
1664986646174,0.040771484,-1.3206177,0.073913574,5.609375,3.40625,3.953125
1664986646204,0.3112793,-1.149231,0.13665771,18.25,13.078125,3.421875
1664986646251,0.3557129,-0.8706665,0.12225342,9.578125,5.40625,5.40625
1664986646328,0.17797852,-0.9885864,0.05633545,3.015625,-8.90625,2.0
1664986646334,0.18896484,-0.8526001,0.09051514,-4.15625,-14.703125,-1.75
1664986646369,0.22705078,-0.79888916,0.2020874,-14.5,-23.1875,-0.984375
1664986646423,0.13867188,-0.8362427,0.18182373,-9.78125,-10.984375,-0.96875
1664986646445,0.095214844,-0.75616455,0.19354248,-4.421875,-0.640625,2.25
1664986646490,0.084228516,-0.72857666,0.19598389,-0.8125,-1.484375,3.078125
1664986646536,0.10058594,-0.7888794,0.23138428,1.609375,3.640625,2.140625
1664986646567,0.119140625,-0.8677368,0.24945068,-0.265625,5.9375,4.53125
1664986646610,0.15307617,-0.88848877,0.30438232,1.21875,4.078125,3.03125
1664986646654,0.12817383,-0.9663696,0.29852295,2.921875,1.78125,3.9375
1664986646685,0.13916016,-0.956604,0.3414917,9.265625,1.828125,1.4375
1664986646730,0.11425781,-1.0923462,0.29412842,6.328125,-0.640625,-0.359375
1664986646760,0.15429688,-1.1724243,0.39642334,-2.515625,-6.015625,-6.46875
1664986646805,0.18530273,-1.2661743,0.3619995,3.53125,-7.484375,-10.0
1664986646849,0.2109375,-1.4019165,0.18939209,-10.609375,-13.71875,-3.359375
1664986646880,0.19873047,-0.99664307,0.1005249,8.3125,0.09375,-12.828125
1664986646926,0.16577148,-0.9553833,-0.031799316,0.109375,-4.515625,-6.515625
1664986646969,0.14477539,-0.99591064,0.12835693,-11.6875,8.140625,-5.5
1664986646998,0.13330078,-0.91485596,0.15081787,-5.609375,6.65625,-0.828125
1664986647044,0.087402344,-0.88360596,0.14129639,0.5625,1.859375,1.765625
1664986647089,0.07128906,-0.81622314,0.17254639,3.640625,-3.109375,1.1875
1664986647124,0.052246094,-0.74664307,0.16229248,4.953125,-0.125,1.6875
1664986647166,0.05029297,-0.75982666,0.17376709,5.46875,-1.4375,1.828125
1664986647194,0.060058594,-0.77911377,0.18499756,6.640625,-0.390625,1.75
1664986647252,0.072509766,-0.8587036,0.20526123,2.703125,-1.890625,2.296875
1664986647284,0.06933594,-0.93585205,0.22088623,5.0,-2.5,3.828125
1664986647316,0.056640625,-1.0081177,0.25091553,0.390625,-8.125,1.609375
1664986647358,0.021972656,-1.053772,0.23309326,1.734375,-4.125,0.359375
1664986647404,-0.012207031,-1.0979614,0.31414795,-4.953125,-5.203125,-1.109375
1664986647432,0.007080078,-1.1299438,0.3612671,-8.953125,-4.6875,-2.6875
1664986647480,0.012939453,-1.1338501,0.2982788,-2.109375,-4.109375,-0.203125
1664986647525,0.18896484,-1.3013306,0.09710693,-0.296875,-10.21875,3.140625
1664986647556,0.44702148,-0.9993286,0.28948975,-4.75,7.734375,4.515625
1664986647634,0.31445312,-0.98150635,0.24871826,-3.515625,-3.359375,2.625
1664986647648,0.14086914,-0.92144775,0.15765381,-7.203125,-13.765625,-2.53125
1664986647675,0.122558594,-0.7703247,0.23406982,-7.53125,-7.890625,-5.265625
1664986647721,0.114746094,-0.75323486,0.29071045,-6.671875,-7.625,-2.390625
1664986647754,0.0690918,-0.7337036,0.29119873,-3.71875,-2.140625,-1.46875
1664986647795,0.060791016,-0.7630005,0.2518921,0.78125,2.8125,0.109375
1664986647841,0.10205078,-0.80426025,0.32733154,-0.640625,4.484375,2.828125
1664986647871,0.12451172,-0.8440552,0.3222046,-1.75,5.5625,4.8125
1664986647915,0.13989258,-0.86431885,0.3600464,-2.5,3.546875,6.015625
1664986647959,0.095947266,-0.8735962,0.39544678,0.453125,4.6875,4.953125
1664986647988,0.07836914,-0.89141846,0.4100952,5.171875,2.453125,3.03125
1664986648035,0.068359375,-0.96832275,0.34588623,5.03125,0.890625,3.828125
1664986648082,0.12963867,-0.94537354,0.48309326,-6.15625,0.90625,-3.125
1664986648111,0.067871094,-1.1270142,0.52630615,-3.5,-1.78125,-9.03125
1664986648154,0.07836914,-1.359436,0.55999756,-4.984375,-8.28125,-8.34375
1664986648185,0.19873047,-1.4651489,0.44329834,-12.59375,-11.6875,-1.0
1664986648235,0.27539062,-0.98028564,0.20379639,19.796875,4.375,-13.109375
1664986648274,0.16088867,-0.97857666,0.13568115,8.859375,6.296875,-6.046875
1664986648362,0.14453125,-0.9417114,0.27850342,2.484375,8.46875,-3.625
1664986648369,0.14477539,-0.85284424,0.23553467,5.703125,9.46875,-1.015625
1664986648397,0.09838867,-0.8381958,0.17352295,8.25,7.015625,0.21875
1664986648424,0.07495117,-0.7678833,0.2189331,11.125,7.84375,0.421875
1664986648469,0.044189453,-0.79766846,0.23236084,8.171875,5.796875,1.1875
1664986648516,0.061035156,-0.7263794,0.23138428,14.53125,7.828125,2.921875
1664986648544,0.080322266,-0.7642212,0.21502686,8.53125,3.265625,4.078125
1664986648589,0.072509766,-0.82696533,0.25238037,5.984375,1.921875,2.34375
1664986648634,0.056640625,-0.83673096,0.2868042,2.5,-0.03125,0.40625
1664986648664,0.010498047,-0.9182739,0.34490967,2.875,-3.90625,-1.125
1664986648715,2.4414062E-4,-1.0466919,0.28851318,6.59375,-2.4375,-4.15625
1664986648740,0.038330078,-1.0928345,0.35565186,-0.390625,-1.46875,-3.6875
1664986648786,0.03540039,-1.203186,0.39788818,-10.5,-3.609375,-3.734375
1664986648831,0.029296875,-1.2512817,0.37738037,-6.640625,-2.96875,-0.0625
1664986648859,0.11303711,-1.3753052,0.25994873,0.28125,-1.0625,2.890625
1664986648906,0.35351562,-1.0698853,0.15814209,10.859375,8.71875,5.84375
1664986648952,0.30029297,-0.8945923,0.13031006,10.90625,4.8125,5.625
1664986648983,0.1862793,-1.0003052,0.16937256,-0.5625,-8.375,0.421875
1664986649024,0.14746094,-0.86138916,0.19085693,-5.953125,-8.609375,-5.453125
1664986649070,0.1315918,-0.8074341,0.21600342,-6.953125,-12.203125,-2.390625
1664986649105,0.10571289,-0.7456665,0.25628662,-2.078125,-5.78125,-0.421875
1664986649145,0.111328125,-0.71759033,0.20965576,7.109375,-1.890625,3.390625
1664986649174,0.114990234,-0.76885986,0.230896,12.546875,-1.4375,5.578125
1664986649219,0.104003906,-0.81500244,0.24603271,4.0625,-2.5625,4.609375
1664986649268,0.106933594,-0.8623657,0.27191162,1.6875,-4.09375,2.828125
1664986649295,0.08325195,-0.8726196,0.28411865,4.03125,-3.53125,2.34375
1664986649340,0.075927734,-0.9011841,0.2814331,3.28125,-0.875,2.46875
1664986649387,0.09765625,-0.95269775,0.3222046,2.453125,2.453125,3.171875
1664986649414,0.099853516,-1.0342407,0.34222412,3.34375,5.953125,0.578125
1664986649466,0.10498047,-1.1528931,0.39764404,-6.171875,2.984375,-3.296875
1664986649505,0.17480469,-1.3777466,0.4118042,-3.359375,0.90625,-4.671875
1664986649535,0.22460938,-1.3855591,0.34857178,-6.015625,-3.5625,1.390625
1664986649582,0.24121094,-1.0630493,0.20965576,19.25,10.234375,-5.15625
1664986649627,0.17895508,-0.8945923,-0.011779785,9.90625,11.375,-2.625
1664986649655,0.18798828,-0.9380493,0.06829834,2.015625,15.953125,-0.546875
1664986649702,0.1784668,-0.90216064,0.13031006,7.0625,11.703125,2.375
1664986649731,0.15429688,-0.88775635,0.07879639,2.140625,3.75,2.4375
1664986649775,0.13500977,-0.8447876,0.15228271,5.421875,4.578125,1.640625
1664986649824,0.13256836,-0.76568604,0.14935303,7.765625,4.515625,0.171875
1664986649849,0.123535156,-0.77911377,0.10687256,9.75,4.9375,2.546875
1664986649896,0.095947266,-0.8467407,0.15179443,8.875,3.078125,2.984375
1664986649941,0.1159668,-0.8196411,0.17230225,12.4375,1.46875,3.265625
1664986649970,0.08691406,-0.8460083,0.121276855,4.078125,-0.234375,3.0
1664986650016,0.09765625,-0.8899536,0.15447998,6.1875,0.90625,0.828125
1664986650062,0.083496094,-0.9492798,0.20233154,3.59375,0.859375,-0.96875
1664986650094,0.064453125,-1.0164185,0.15692139,8.890625,3.546875,0.28125
1664986650166,0.08911133,-1.1074829,0.07733154,13.046875,17.0625,7.328125
1664986650171,0.15063477,-1.2056274,0.3361206,-4.59375,1.0,8.203125
1664986650214,0.17382812,-1.4883423,0.18011475,-10.53125,-0.734375,2.015625
1664986650255,0.37670898,-1.2749634,0.005065918,5.796875,2.421875,7.265625
1664986650284,0.48828125,-0.8623657,0.07952881,-4.375,8.296875,4.78125
1664986650330,0.28100586,-0.92437744,0.10467529,-8.203125,-10.75,-2.65625
1664986650375,0.19189453,-0.9248657,0.022644043,-16.96875,-13.765625,-9.078125
1664986650403,0.25561523,-0.8064575,0.14447021,-15.25,-5.921875,-10.078125
1664986650450,0.22509766,-0.8118286,0.20892334,-16.796875,-8.0625,-5.578125
1664986650497,0.1586914,-0.81500244,0.20574951,-15.875,-7.9375,-6.515625
1664986650525,0.11621094,-0.7998657,0.17059326,-7.03125,-3.6875,-6.171875
1664986650569,0.107421875,-0.78204346,0.24871826,-7.5625,0.46875,-8.015625
1664986650617,0.09814453,-0.78253174,0.29071045,-3.875,4.125,-2.078125
1664986650648,0.12451172,-0.7920532,0.30584717,1.09375,4.109375,0.296875
1664986650689,0.123535156,-0.81134033,0.27679443,3.1875,5.109375,2.84375
1664986650720,0.18115234,-0.89727783,0.355896,3.921875,3.59375,2.203125
1664986650768,0.18310547,-0.9192505,0.3397827,4.4375,-1.6875,0.78125
1664986650812,0.1496582,-0.986145,0.37738037,-0.390625,-5.6875,-0.59375
1664986650838,0.115722656,-1.0147095,0.40985107,4.359375,-3.875,-1.4375
1664986650885,0.13012695,-1.0725708,0.4454956,-6.9375,-6.765625,-5.25
1664986650930,0.1665039,-1.1460571,0.4232788,4.421875,-4.078125,-2.609375
1664986650966,0.21459961,-1.4575806,0.3522339,-10.890625,-8.3125,6.859375
1664986651007,0.26953125,-1.2119751,0.17181396,4.5,2.578125,-13.296875
1664986651050,0.20117188,-0.8635864,0.15814209,8.0,-1.3125,-10.03125
1664986651084,0.13427734,-0.97857666,0.2074585,4.359375,3.8125,-5.1875
1664986651127,0.1616211,-0.92510986,0.14178467,1.046875,6.84375,-5.46875
1664986651168,0.17871094,-0.90289307,0.1774292,4.640625,4.703125,0.09375
1664986651201,0.11694336,-0.85479736,0.20013428,6.671875,1.84375,-0.328125
1664986651245,0.03564453,-0.8406372,0.2501831,6.84375,2.46875,1.015625
1664986651275,0.061279297,-0.84381104,0.22161865,9.75,3.5,0.890625
1664986651320,0.07495117,-0.7605591,0.15447998,30.515625,20.421875,4.78125
1664986651365,0.055664062,-0.82891846,0.1918335,31.109375,20.640625,3.78125
1664986651395,0.060791016,-0.7542114,0.18890381,25.703125,11.484375,2.328125
1664986651475,0.07543945,-0.8069458,0.11175537,17.5,6.890625,3.25
1664986651484,0.08325195,-0.9470825,0.20135498,8.734375,-5.15625,-0.28125
1664986651515,0.08227539,-1.0615845,0.19256592,7.25,-11.265625,-2.015625
1664986651559,0.07006836,-1.178772,0.2423706,-12.1875,-22.609375,-3.484375
1664986651604,0.07397461,-1.2283325,0.25750732,-24.015625,-19.375,-6.03125
1664986651634,0.053955078,-1.3589478,0.19476318,-36.578125,-21.9375,-9.921875
1664986651680,0.2163086,-1.303772,0.121032715,-10.71875,-16.9375,-5.953125
1664986651710,0.34545898,-0.9175415,0.1083374,-4.71875,-5.765625,-3.03125
1664986651755,0.21386719,-0.9553833,0.121520996,-3.90625,-8.1875,0.9375
1664986651799,0.17919922,-0.9529419,0.12713623,-11.09375,-12.3125,-2.296875
1664986651836,0.1772461,-0.8833618,0.2345581,-5.09375,-9.328125,-3.0625
1664986651876,0.125,-0.8867798,0.23187256,-2.546875,-11.640625,-1.640625
1664986651920,0.11987305,-0.8340454,0.20379639,0.46875,-7.40625,-0.625
1664986651954,0.09008789,-0.77789307,0.2255249,3.53125,-0.25,3.234375
1664986651997,0.067871094,-0.76641846,0.22723389,8.578125,4.15625,4.046875
1664986652039,0.061279297,-0.7739868,0.23577881,5.5,3.8125,4.234375
1664986652072,0.07739258,-0.8399048,0.20794678,9.28125,5.28125,3.484375
1664986652117,0.13305664,-0.8345337,0.24993896,4.546875,3.109375,6.5625
1664986652160,0.088378906,-0.927063,0.2921753,2.890625,7.34375,9.84375
1664986652192,0.08862305,-1.0095825,0.35443115,-0.578125,3.421875,8.96875
1664986652234,0.11035156,-1.0488892,0.36102295,3.109375,8.703125,4.84375
1664986652264,0.12524414,-1.1275024,0.40374756,-4.90625,4.609375,-2.65625
1664986652313,0.16503906,-1.208313,0.3361206,-2.609375,7.234375,-10.046875
1664986652355,0.18310547,-1.4241333,0.3007202,-10.640625,-3.578125,-1.140625
1664986652387,0.22338867,-1.1348267,0.18743896,29.90625,4.390625,-12.3125
1664986652431,0.23510742,-0.92755127,0.015563965,18.46875,5.46875,-2.71875
1664986652476,0.20166016,-0.95684814,0.13739014,-0.453125,6.75,0.296875
1664986652504,0.1652832,-0.8838501,0.097351074,-2.5,7.578125,0.078125
1664986652550,0.12133789,-0.86676025,0.109802246,-0.40625,1.875,-1.125
1664986652595,0.06201172,-0.83551025,0.121276855,-4.234375,3.46875,-3.03125
1664986652625,0.044433594,-0.8257446,0.13421631,-6.15625,6.984375,-4.0
1664986652669,0.07055664,-0.8220825,0.17376709,3.125,7.1875,-2.890625
1664986652704,0.10961914,-0.78326416,0.19085693,1.34375,8.390625,0.359375
1664986652749,0.10107422,-0.7937622,0.2477417,1.84375,3.46875,2.953125
1664986652798,0.05859375,-0.8821411,0.20721436,5.75,-1.5625,1.65625
1664986652866,0.09350586,-0.87823486,0.23382568,7.9375,-3.28125,0.234375
1664986652873,0.030761719,-0.94537354,0.24261475,11.296875,-0.1875,0.171875
1664986652916,0.0690918,-0.9734497,0.25701904,8.140625,0.125,2.046875
1664986652940,0.091552734,-1.0239868,0.25457764,-4.46875,-4.796875,0.734375
1664986652986,0.08691406,-1.1624146,0.33099365,-13.09375,-8.734375,-0.25
1664986653032,0.024169922,-1.3201294,0.27337646,-6.84375,-10.53125,-2.15625
1664986653060,0.1772461,-1.3897095,0.11663818,-2.15625,-11.390625,0.1875
1664986653105,0.36938477,-1.0234985,0.17132568,2.03125,6.53125,-0.4375
1664986653149,0.24584961,-0.94781494,0.047790527,7.765625,0.390625,3.28125
1664986653183,0.22509766,-0.9614868,0.14178467,-3.515625,-3.4375,-0.3125
1664986653225,0.2097168,-0.9011841,0.19256592,-8.234375,-9.5,-1.6875
1664986653257,0.13476562,-0.85040283,0.184021,-2.5,-11.53125,-0.921875
1664986653299,0.12890625,-0.80133057,0.21282959,0.609375,-4.921875,0.328125
1664986653349,0.11352539,-0.74468994,0.19500732,5.4375,1.484375,3.796875
1664986653374,0.118652344,-0.7437134,0.22869873,8.90625,2.4375,5.71875
1664986653419,0.0925293,-0.8230591,0.20013428,16.796875,5.03125,6.953125
1664986653465,0.12817383,-0.84161377,0.21600342,7.28125,-0.484375,3.9375
1664986653497,0.15966797,-0.87945557,0.25115967,3.5,-2.5,2.4375
1664986653542,0.13916016,-0.92315674,0.28778076,-1.546875,-0.609375,3.609375
1664986653585,0.14404297,-0.93878174,0.32904053,-9.8125,-1.734375,1.078125
1664986653614,0.09838867,-1.0178833,0.36297607,-9.515625,-1.734375,-2.234375
1664986653660,0.091308594,-1.0567017,0.41253662,-5.625,2.75,-4.84375
1664986653689,0.1706543,-1.2532349,0.434021,-10.5,2.046875,-0.59375
1664986653736,0.28027344,-1.3618774,0.43426514,-13.0,-3.203125,1.265625
1664986653779,0.3017578,-1.3123169,0.2975464,-1.65625,-13.0,-3.75
1664986653810,0.1706543,-0.99835205,0.09173584,16.65625,-2.53125,-9.125
1664986653855,0.17016602,-0.8887329,0.073913574,12.03125,8.171875,-7.40625
1664986653901,0.15649414,-0.9385376,0.074401855,2.546875,14.234375,-0.859375
1664986653931,0.18139648,-0.87628174,0.1251831,1.90625,8.953125,0.328125
1664986654005,0.14379883,-0.8413696,0.19354248,0.9375,3.515625,2.203125
1664986654018,0.07739258,-0.84698486,0.22821045,1.03125,-2.953125,1.3125
1664986654050,0.045410156,-0.78985596,0.20819092,3.09375,-3.875,-1.484375
1664986654094,0.057861328,-0.75909424,0.21746826,7.734375,0.90625,0.359375
1664986654170,0.0625,-0.78302,0.20770264,2.328125,5.46875,-0.65625
1664986654173,0.053710938,-0.8101196,0.2453003,2.09375,2.0625,-1.234375
1664986654215,0.061279297,-0.88238525,0.2765503,3.453125,-1.765625,-2.875
1664986654244,0.0390625,-0.91534424,0.28704834,2.109375,-2.171875,-3.640625
1664986654291,0.024658203,-1.0557251,0.28778076,0.59375,-2.890625,-4.484375
1664986654334,0.02734375,-1.0977173,0.29534912,-1.5625,-2.578125,-2.484375
1664986654364,0.057617188,-1.2525024,0.3378296,-16.296875,-8.765625,-1.9375
1664986654410,0.08154297,-1.3623657,0.30877686,-5.484375,-0.9375,-1.234375
1664986654454,0.25830078,-1.2053833,0.25360107,10.734375,-2.078125,5.703125
1664986654484,0.33447266,-0.9282837,0.13446045,13.921875,4.90625,6.546875
1664986654529,0.2722168,-0.93829346,0.0927124,6.625,-4.453125,6.8125
1664986654576,0.24267578,-0.9014282,0.13079834,-2.78125,-13.375,4.34375
1664986654605,0.22045898,-0.77471924,0.20526123,2.375,-10.140625,2.109375
1664986654649,0.19628906,-0.80670166,0.18206787,-2.859375,-14.34375,2.6875
1664986654695,0.16845703,-0.7415161,0.2177124,4.125,-10.75,1.578125
1664986654724,0.12036133,-0.7859497,0.17645264,7.1875,-2.453125,5.25
1664986654770,0.15551758,-0.7637329,0.25701904,2.34375,-0.609375,7.0625
1664986654800,0.125,-0.8687134,0.26434326,1.125,-0.296875,5.71875
1664986654845,0.14135742,-0.9336548,0.2675171,2.5,-1.90625,2.859375
1664986654890,0.18237305,-0.9331665,0.2892456,1.53125,1.34375,2.53125
1664986654919,0.19921875,-0.9558716,0.3234253,-0.1875,3.46875,3.828125
1664986654964,0.1628418,-0.94244385,0.3222046,0.96875,5.390625,-0.53125
1664986655010,0.11621094,-1.0523071,0.4179077,-1.203125,9.140625,-5.90625
1664986655042,0.087646484,-1.1355591,0.4977417,-5.171875,11.203125,-13.359375
1664986655084,0.17089844,-1.2688599,0.40374756,-2.984375,0.171875,-10.625
1664986655130,0.24584961,-1.3450317,0.2802124,-5.296875,-3.15625,-1.203125
1664986655164,0.27026367,-0.96759033,-0.02545166,12.515625,11.453125,-17.796875
1664986655206,0.19970703,-0.88116455,-0.03717041,8.9375,11.71875,-8.140625
1664986655234,0.17260742,-0.94415283,0.14764404,-4.546875,15.109375,-2.625
1664986655315,0.18652344,-0.8740845,0.101989746,-0.203125,11.703125,-1.71875
1664986655325,0.16772461,-0.8286743,0.1071167,1.28125,4.421875,0.515625
1664986655355,0.1015625,-0.81573486,0.19598389,3.890625,1.796875,-1.03125
1664986655399,0.020019531,-0.8123169,0.12567139,2.859375,-1.78125,-0.34375
1664986655444,0.03466797,-0.8501587,0.14813232,0.796875,2.125,0.28125
1664986655476,0.09033203,-0.85723877,0.20501709,0.859375,6.078125,1.125
1664986655520,0.09301758,-0.927063,0.22454834,-1.109375,4.34375,-0.140625
1664986655563,0.0793457,-0.8921509,0.23284912,1.578125,2.078125,-1.25
1664986655593,0.067871094,-0.96343994,0.2748413,0.65625,-1.71875,-1.34375
1664986655641,0.09326172,-1.0325317,0.26922607,6.328125,-0.578125,1.75
1664986655689,0.03491211,-1.1350708,0.2694702,-1.5625,-7.921875,1.96875
1664986655719,0.021484375,-1.1965942,0.22064209,3.640625,-15.28125,-0.09375
1664986655759,0.15356445,-1.2634888,0.19573975,0.34375,-13.6875,-2.640625
1664986655792,0.25756836,-1.1470337,0.23602295,11.921875,-5.453125,-5.65625
1664986655834,0.31103516,-0.9468384,0.10809326,7.359375,-0.359375,-2.3125
1664986655879,0.26904297,-0.9793091,0.11883545,8.609375,-3.140625,2.796875
1664986655911,0.26660156,-0.87823486,0.1005249,3.359375,-3.171875,2.46875
1664986655955,0.2211914,-0.84381104,0.17352295,-0.8125,-8.546875,2.046875
1664986655999,0.14404297,-0.84698486,0.23504639,-1.125,-11.015625,1.8125
1664986656039,0.08935547,-0.8010864,0.17254639,3.296875,-6.609375,-0.421875
1664986656073,0.08520508,-0.81085205,0.17108154,5.1875,0.046875,3.734375
1664986656119,0.118896484,-0.7925415,0.21917725,1.75,3.984375,4.75
1664986656148,0.13183594,-0.8093872,0.20916748,3.671875,0.9375,5.171875
1664986656194,0.14697266,-0.8477173,0.27435303,-2.46875,-3.21875,3.09375
1664986656223,0.12866211,-0.90167236,0.2687378,4.21875,-0.390625,6.21875
1664986656268,0.1652832,-0.9273071,0.31195068,11.15625,15.5,8.375
1664986656313,0.11694336,-1.0349731,0.24481201,9.28125,6.9375,5.984375
1664986656344,0.1159668,-1.0999146,0.35980225,0.15625,5.328125,-1.875
1664986656391,0.1274414,-1.2063599,0.3366089,-2.5,-3.953125,-7.71875
1664986656432,0.25170898,-1.4343872,0.22259521,-6.96875,-13.546875,-1.75
1664986656463,0.32714844,-1.2349243,0.15008545,-4.90625,-11.59375,-10.4375
1664986656509,0.2084961,-1.0100708,0.062438965,-0.71875,-6.234375,-10.390625
1664986656570,0.18334961,-0.940979,0.054138184,-5.546875,3.03125,-7.375
1664986656583,0.21826172,-0.91534424,0.12200928,-3.5,7.390625,-4.0625
1664986656628,0.20141602,-0.862854,0.08905029,-2.1875,5.484375,-1.875
1664986656673,0.10644531,-0.88409424,0.13690186,0.375,1.859375,0.3125
1664986656703,0.07348633,-0.8369751,0.13104248,-2.859375,-1.84375,0.15625
1664986656747,0.08959961,-0.8128052,0.17449951,5.5,1.984375,3.21875
1664986656782,0.10180664,-0.7805786,0.17962646,8.03125,3.4375,4.921875
1664986656827,0.12670898,-0.7774048,0.19989014,8.890625,2.234375,6.640625
1664986656868,0.09741211,-0.81378174,0.18792725,3.953125,0.34375,3.046875
1664986656898,0.07495117,-0.8855591,0.19793701,-0.859375,-0.3125,0.03125
1664986656946,0.096191406,-0.87750244,0.28607178,2.953125,1.953125,1.234375
1664986656994,0.043945312,-0.99468994,0.2831421,3.65625,-0.34375,1.046875
1664986657022,0.04345703,-1.079895,0.27679443,0.3125,-2.25,-4.203125
1664986657065,2.4414062E-4,-1.1680298,0.2831421,-5.703125,-2.796875,-5.765625
1664986657109,0.05859375,-1.3096313,0.19500732,-9.6875,-3.234375,-5.09375
1664986657143,0.21704102,-1.3413696,0.18865967,12.1875,10.5,-0.90625
1664986657185,0.31958008,-1.0186157,0.13079834,22.171875,8.09375,1.53125
1664986657215,0.28222656,-0.9480591,0.09661865,4.296875,3.140625,0.265625
1664986657259,0.2722168,-0.97247314,0.06951904,-4.984375,-10.484375,-2.15625
1664986657306,0.2783203,-0.9060669,0.15618896,-13.140625,-10.671875,-4.34375
1664986657337,0.16308594,-0.83795166,0.2033081,3.078125,-2.65625,-1.84375
1664986657380,0.13232422,-0.831604,0.14520264,5.453125,-2.734375,5.453125
1664986657427,0.18261719,-0.74884033,0.18792725,1.765625,-0.359375,3.40625
1664986657457,0.09716797,-0.7752075,0.15863037,-0.546875,-2.359375,4.53125
1664986657502,0.07910156,-0.784729,0.18353271,-1.078125,-2.546875,0.296875
1664986657545,0.122558594,-0.82769775,0.20550537,1.171875,-1.09375,1.171875
1664986657576,0.16333008,-0.9019165,0.24749756,-3.09375,1.140625,2.0
1664986657620,0.15014648,-0.895813,0.26409912,2.03125,4.421875,2.296875
1664986657665,0.14648438,-0.9258423,0.31658936,5.984375,4.6875,1.4375
1664986657695,0.12817383,-1.0066528,0.2531128,1.484375,0.609375,-2.3125
1664986657741,0.123046875,-1.0840454,0.3156128,-5.015625,0.234375,-8.921875
1664986657769,0.16967773,-1.2356567,0.35198975,-1.671875,7.359375,-14.0
1664986657814,0.20751953,-1.4246216,0.25531006,-10.890625,-2.078125,1.921875
1664986657863,0.26367188,-1.1939087,0.1408081,13.734375,11.390625,-13.75
1664986657890,0.2241211,-0.96343994,0.022399902,12.703125,13.375,-6.796875
1664986657936,0.19970703,-0.91119385,0.070007324,1.625,8.3125,-1.828125
1664986657980,0.13696289,-0.9702759,0.07635498,0.625,8.578125,-1.03125
1664986658013,0.1352539,-0.9031372,0.07879639,-3.296875,2.21875,-1.734375
1664986658054,0.083984375,-0.9053345,0.18426514,-2.109375,2.734375,-2.453125
1664986658099,0.06274414,-0.85040283,0.1786499,0.859375,3.375,-2.828125
1664986658130,0.059814453,-0.8081665,0.13665771,2.640625,7.015625,-0.5625
1664986658177,0.05444336,-0.78082275,0.10491943,6.625,7.109375,0.234375
1664986658206,0.0715332,-0.78448486,0.09490967,2.328125,3.84375,0.796875
1664986658249,0.083496094,-0.8237915,0.14398193,5.546875,4.171875,2.15625
1664986658294,0.0715332,-0.82647705,0.1605835,-2.171875,-3.734375,-0.28125
1664986658323,0.043701172,-0.87506104,0.20916748,-5.671875,-8.78125,-3.84375
1664986658370,-0.020751953,-0.94244385,0.33807373,7.59375,-1.75,-2.078125
1664986658415,-0.025390625,-1.1340942,0.2982788,2.71875,-2.21875,-0.078125
1664986658444,0.076171875,-1.171936,0.25775146,-3.234375,1.21875,-1.265625
1664986658490,0.07714844,-1.3218384,0.17962646,-6.140625,-0.234375,2.859375
1664986658536,0.20288086,-1.5459595,0.16107178,0.9375,0.0,4.140625
1664986658565,0.38183594,-0.98883057,0.08709717,13.546875,8.875,-0.328125
1664986658610,0.24145508,-0.8428345,0.07293701,6.96875,-6.5,0.9375
1664986658685,0.13232422,-0.96417236,0.043151855,-2.765625,-10.9375,1.984375
1664986658691,0.19702148,-0.8933716,0.05218506,-3.421875,-9.625,-0.078125
1664986658729,0.23022461,-0.8538208,0.15618896,-7.84375,-12.8125,1.171875
1664986658760,0.12011719,-0.8682251,0.19573975,-2.71875,-8.359375,0.90625
1664986658806,0.07836914,-0.7959595,0.15911865,0.265625,-2.5625,0.09375
1664986658849,0.08984375,-0.7852173,0.16790771,-0.296875,1.125,2.21875
1664986658879,0.118652344,-0.81378174,0.20770264,2.53125,5.28125,2.765625
1664986658925,0.13452148,-0.8584595,0.2255249,1.328125,2.703125,2.609375
1664986658970,0.1430664,-0.8858032,0.24383545,-0.25,0.671875,2.390625
1664986658999,0.111816406,-0.9480591,0.25579834,-2.21875,1.953125,2.703125
1664986659043,0.12573242,-0.95147705,0.22894287,-0.96875,3.734375,1.265625
1664986659123,0.1105957,-0.942688,0.31951904,-4.375,4.6875,1.09375
1664986659130,0.07397461,-1.0071411,0.40423584,-6.09375,5.765625,-4.078125
1664986659165,0.07348633,-1.1555786,0.4533081,-6.234375,3.015625,-6.421875
1664986659211,0.20605469,-1.3843384,0.3053589,5.25,-0.015625,-2.703125
1664986659240,0.26220703,-1.413147,0.109802246,-0.515625,-3.109375,-0.875
1664986659285,0.2446289,-0.9697876,0.14300537,14.375,6.28125,-16.71875
1664986659315,0.14990234,-0.87872314,0.11639404,1.875,1.765625,-6.703125
1664986659366,0.16870117,-0.96051025,0.15765381,-2.28125,-0.53125,-2.453125
1664986659406,0.19677734,-0.87286377,0.1071167,3.71875,-1.0,-1.890625
1664986659434,0.10449219,-0.8357544,0.09906006,5.703125,-0.140625,0.3125
1664986659480,0.05883789,-0.82696533,0.12005615,3.265625,1.453125,-0.359375
1664986659525,0.056640625,-0.8128052,0.16741943,5.0,3.078125,0.9375
1664986659555,0.07543945,-0.78863525,0.16107178,9.765625,0.640625,4.546875
1664986659600,0.076660156,-0.80474854,0.1593628,9.703125,-0.71875,3.78125
1664986659646,0.060791016,-0.86920166,0.14691162,7.390625,1.125,3.578125
1664986659676,0.072265625,-0.9067993,0.18304443,8.3125,-0.875,3.0625
1664986659720,0.087890625,-0.96588135,0.215271,3.984375,-1.53125,0.875
1664986659768,0.0546875,-0.9746704,0.2477417,8.875,-1.9375,-1.171875
1664986659794,0.0056152344,-1.0879517,0.22137451,7.71875,-1.953125,-2.734375
1664986659841,0.041015625,-1.0872192,0.2506714,-0.140625,0.609375,-1.84375
1664986659872,0.055664062,-1.1514282,0.22747803,-2.625,1.4375,3.46875
1664986659914,0.115722656,-1.3692017,0.105163574,4.953125,-1.53125,8.234375
1664986659961,0.3540039,-1.1687622,0.0028686523,16.28125,-3.03125,8.734375
1664986659995,0.34057617,-0.85723877,0.04144287,14.15625,-2.65625,8.984375
1664986660038,0.22314453,-1.0125122,0.034606934,-6.078125,-10.328125,0.375
1664986660079,0.18115234,-0.9553833,-0.024230957,-6.765625,-10.734375,-2.0625
1664986660110,0.2446289,-0.8687134,0.08416748,-8.015625,-9.328125,-1.4375
1664986660155,0.23413086,-0.8479614,0.16204834,-10.140625,-8.5625,-0.71875
1664986660199,0.16040039,-0.78570557,0.14471436,-1.9375,-7.265625,0.671875
1664986660233,0.09301758,-0.80352783,0.12005615,-2.65625,-4.984375,2.234375
1664986660276,0.1616211,-0.79400635,0.1876831,0.421875,-2.3125,3.828125
1664986660305,0.17578125,-0.8440552,0.19818115,0.734375,1.1875,4.46875
1664986660353,0.15820312,-0.86187744,0.16351318,-0.8125,-2.78125,3.203125
1664986660409,0.15161133,-0.8755493,0.21820068,0.453125,-0.46875,3.15625
1664986660424,0.15454102,-0.925354,0.26190186,3.078125,2.59375,5.421875
1664986660468,0.16699219,-0.9561157,0.27850342,3.921875,1.5625,5.34375
1664986660516,0.14038086,-1.0200806,0.2982788,2.984375,5.671875,0.40625
1664986660543,0.11352539,-1.1692505,0.32391357,-0.21875,4.359375,-7.296875
1664986660590,0.23803711,-1.2803345,0.25213623,3.359375,1.78125,-9.484375
1664986660635,0.30639648,-1.3467407,0.16571045,0.28125,5.5625,-2.953125
1664986660665,0.25146484,-1.0986938,0.042663574,6.65625,5.96875,-15.234375
1664986660710,0.24511719,-0.89434814,0.01361084,7.109375,1.09375,-13.953125
1664986660741,0.21240234,-0.93707275,-0.044006348,9.25,7.734375,-9.078125
1664986660786,0.20410156,-0.97125244,-0.008605957,12.6875,6.796875,-11.796875
1664986660828,0.11425781,-0.84503174,0.066345215,3.5,2.28125,-8.671875
1664986660861,0.053955078,-0.8557739,0.04168701,-2.546875,8.40625,-0.625
1664986660906,0.08081055,-0.80255127,0.06414795,-7.296875,12.1875,2.21875
1664986660954,0.10644531,-0.7786255,0.10858154,-0.0625,6.546875,2.765625
1664986660979,0.08984375,-0.80914307,0.10076904,12.25,0.71875,3.5
1664986661025,0.060791016,-0.8682251,0.17156982,8.734375,-3.265625,0.921875
1664986661072,0.037841797,-0.8911743,0.0836792,6.734375,-2.515625,-0.578125
1664986661102,0.053710938,-0.927063,0.10760498,3.3125,1.0,-1.265625
1664986661146,0.07104492,-0.9546509,0.16278076,1.453125,-1.21875,-0.671875
1664986661193,0.05078125,-0.99468994,0.14520264,4.96875,1.09375,0.5625
1664986661222,0.064697266,-1.0701294,0.15472412,1.234375,0.484375,0.984375
1664986661265,0.05810547,-1.1138306,0.16790771,-3.84375,0.484375,1.03125
1664986661295,0.08544922,-1.2366333,0.14300537,-7.171875,-4.203125,2.765625
1664986661339,0.18676758,-1.4307251,0.03363037,-0.4375,-4.6875,6.953125
1664986661387,0.32226562,-1.0923462,0.022644043,4.34375,2.578125,4.890625
1664986661417,0.28149414,-0.9536743,0.059265137,2.515625,0.703125,3.515625
1664986661459,0.1940918,-0.95440674,0.0026245117,-0.15625,-5.0,1.125
1664986661504,0.23364258,-0.86553955,0.044128418,-0.9375,-4.28125,-0.390625
1664986661535,0.22998047,-0.8538208,0.05633545,-3.21875,-7.859375,-0.296875
1664986661580,0.18408203,-0.8633423,0.1149292,-3.03125,-5.640625,-0.125
1664986661626,0.14868164,-0.81207275,0.15228271,0.0625,-2.953125,0.171875
1664986661655,0.12231445,-0.7920532,0.12884521,4.984375,-2.390625,2.8125
1664986661715,0.12646484,-0.7866821,0.14569092,1.296875,-1.390625,3.09375
1664986661731,0.11376953,-0.8123169,0.14349365,3.421875,-2.65625,1.953125
1664986661774,0.12133789,-0.8196411,0.15423584,3.578125,-1.265625,1.234375
1664986661820,0.14941406,-0.9234009,0.1486206,7.671875,4.65625,6.921875
1664986661850,0.17163086,-0.96661377,0.20916748,7.828125,6.34375,7.34375
1664986661894,0.17822266,-1.0410767,0.2255249,2.546875,1.9375,2.28125
1664986661940,0.18896484,-1.1138306,0.27972412,-1.046875,-0.078125,-6.625
1664986661968,0.2199707,-1.1936646,0.2164917,1.171875,0.3125,-11.765625
1664986662017,0.3635254,-1.4295044,0.14935303,-9.59375,-3.53125,4.90625
1664986662061,0.34277344,-1.2537231,0.008972168,5.546875,-1.203125,-9.578125
1664986662091,0.18945312,-0.91192627,-0.033996582,9.0625,-4.125,-11.046875
1664986662138,0.12768555,-0.89630127,-0.019836426,-1.609375,3.421875,-3.46875
1664986662183,0.11450195,-0.97247314,0.0289917,-3.671875,9.890625,0.4375
1664986662210,0.17114258,-0.8928833,-0.014709473,7.5,11.375,0.15625
1664986662255,0.107666016,-0.8604126,1.8310547E-4,10.53125,16.46875,2.984375
1664986662285,0.06640625,-0.7798462,0.013366699,3.6875,13.65625,2.296875
1664986662330,0.05078125,-0.85528564,0.089782715,9.9375,18.34375,1.3125
1664986662375,0.1262207,-0.8179321,0.086364746,7.890625,17.078125,2.359375
1664986662404,0.16088867,-0.80352783,0.082458496,7.671875,11.015625,4.75
1664986662454,0.13720703,-0.8870239,0.051696777,7.765625,5.15625,5.421875
1664986662494,0.16772461,-0.9146118,0.06781006,2.609375,1.734375,2.375
1664986662524,0.14355469,-0.8994751,0.12542725,0.984375,-1.078125,0.359375
1664986662570,0.09350586,-0.96759033,0.08270264,-4.890625,-8.40625,-1.8125
1664986662616,0.088378906,-1.0391235,0.081726074,-9.671875,-6.21875,-1.203125
1664986662644,0.14038086,-1.1296997,0.20111084,-15.625,-3.5,-1.796875
1664986662691,0.13842773,-1.229065,0.13616943,-18.203125,-7.15625,-1.28125
1664986662721,0.15600586,-1.3318481,0.022155762,-6.578125,-6.109375,-2.109375
1664986662765,0.31884766,-1.0950317,-0.039123535,2.9375,3.75,0.953125
1664986662810,0.35009766,-0.9573364,-0.029846191,16.875,3.5625,6.078125
1664986662840,0.28588867,-0.94073486,-0.021057129,4.09375,-3.609375,1.78125
1664986662886,0.26245117,-0.9578247,0.014587402,-6.078125,-10.75,-2.171875
1664986662960,0.24511719,-0.9168091,0.0770874,-7.96875,-13.59375,-5.453125
1664986662965,0.22070312,-0.87579346,0.093444824,-5.359375,-12.078125,-4.609375
1664986663007,0.19555664,-0.8328247,0.097839355,-1.84375,-8.078125,-1.703125
1664986663050,0.15478516,-0.8233032,0.07269287,-0.28125,-3.875,1.390625
1664986663080,0.17333984,-0.78741455,0.13568115,1.453125,-0.4375,1.75
1664986663124,0.13598633,-0.817688,0.16986084,-0.421875,-3.03125,1.109375
1664986663169,0.13891602,-0.83843994,0.15618896,0.0625,-4.328125,0.625
1664986663205,0.14355469,-0.8574829,0.18231201,0.953125,-2.390625,2.390625
1664986663244,0.15283203,-0.90826416,0.21575928,1.234375,-1.53125,2.125
1664986663274,0.115478516,-0.96954346,0.22039795,-0.84375,-1.234375,1.09375
1664986663322,0.092041016,-1.0283813,0.25360107,4.453125,3.703125,-3.828125
1664986663369,0.060302734,-1.0913696,0.25872803,-3.8125,7.484375,-14.046875
1664986663395,0.18823242,-1.2957153,0.21673584,-1.453125,4.515625,-6.734375
1664986663443,0.28686523,-1.3464966,0.2140503,-10.390625,7.859375,0.390625
1664986663487,0.35766602,-1.1817017,0.16033936,7.96875,7.453125,-6.671875
1664986663514,0.24609375,-0.9771118,0.011169434,10.671875,2.296875,-7.8125
1664986663564,0.14746094,-0.9651489,0.01727295,6.78125,6.609375,-6.15625
1664986663604,0.1616211,-0.9468384,0.019714355,10.59375,7.703125,-3.75
1664986663634,0.14794922,-0.8484497,0.028503418,8.671875,14.28125,0.0
1664986663684,0.14501953,-0.9343872,0.039489746,4.46875,17.578125,3.0
1664986663723,0.15942383,-0.79156494,0.061706543,7.25,14.765625,3.15625
1664986663754,0.12524414,-0.79693604,0.09222412,8.21875,5.109375,3.75
1664986663801,0.07324219,-0.74346924,0.097595215,2.796875,-1.296875,1.46875
1664986663830,0.044677734,-0.755188,0.05731201,6.828125,-2.96875,1.0
1664986663874,0.07519531,-0.89385986,0.058288574,0.140625,-3.296875,-0.1875
1664986663920,0.123535156,-0.92437744,0.12908936,-2.296875,-1.84375,-1.0625
1664986663961,0.07861328,-0.95806885,0.15740967,-5.4375,-7.296875,-2.640625
1664986663993,0.050048828,-0.97784424,0.14788818,-1.765625,-4.390625,-2.203125
1664986664039,0.06982422,-0.9783325,0.13079834,-6.609375,3.046875,4.6875
1664986664073,0.10205078,-1.1255493,0.23114014,-4.0625,2.78125,7.875
1664986664116,0.09790039,-1.3250122,0.13787842,-3.765625,-0.828125,3.46875
1664986664161,0.26049805,-1.4158325,0.012145996,1.84375,-0.953125,5.546875
1664986664192,0.42041016,-1.0830688,0.019470215,9.65625,-2.46875,5.0
1664986664249,0.31835938,-0.92510986,0.07757568,3.890625,-12.875,4.171875
1664986664263,0.18481445,-0.9116821,-0.043029785,-6.78125,-20.0625,-1.453125
1664986664312,0.20654297,-0.878479,0.004333496,-7.328125,-16.953125,-2.46875
1664986664355,0.26049805,-0.8635864,0.12249756,-9.375,-13.375,-3.609375
1664986664386,0.21362305,-0.8521118,0.121520996,-4.0625,-11.40625,-1.78125
1664986664450,0.16113281,-0.81378174,0.152771,-0.421875,-2.546875,1.078125
1664986664476,0.16503906,-0.829895,0.13543701,2.640625,-0.078125,3.15625
1664986664504,0.20751953,-0.83380127,0.19256592,2.75,-0.53125,3.125
1664986664551,0.17114258,-0.8599243,0.15911865,3.65625,0.25,2.21875
1664986664597,0.15820312,-0.8543091,0.14227295,-0.140625,-0.671875,2.59375
1664986664626,0.14428711,-0.861145,0.17596436,-2.1875,0.46875,1.96875
1664986664671,0.17480469,-0.90045166,0.23773193,1.921875,2.59375,3.84375
1664986664718,0.17797852,-0.956604,0.24554443,1.78125,2.921875,4.90625
1664986664745,0.1472168,-1.05719,0.32147217,-3.640625,2.4375,-2.34375
1664986664790,0.09814453,-1.1226196,0.33294678,-2.75,1.1875,-11.09375
1664986664826,0.24047852,-1.1550903,0.20257568,5.921875,-3.484375,-11.75
1664986664866,0.2944336,-1.3359985,0.2321167,-2.515625,-4.46875,0.421875
1664986664915,0.28930664,-1.1194458,0.058044434,20.953125,-1.671875,-16.1875
1664986664939,0.2685547,-0.9492798,-0.008850098,17.515625,-1.6875,-8.1875
1664986664985,0.2368164,-0.9529419,0.059753418,6.03125,9.234375,-0.921875
1664986665032,0.20507812,-0.9143677,0.03265381,3.359375,1.59375,-1.0625
1664986665068,0.19628906,-0.86798096,0.04510498,8.140625,5.6875,2.40625
1664986665105,0.16723633,-0.8550415,0.038513184,6.78125,7.40625,2.796875
1664986665149,0.1496582,-0.847229,0.043395996,7.46875,6.34375,4.296875
1664986665183,0.12133789,-0.8123169,0.09979248,12.09375,4.375,4.90625
1664986665225,0.08862305,-0.81134033,0.08685303,9.78125,0.359375,4.0
1664986665255,0.08520508,-0.8555298,0.07098389,5.9375,-0.65625,2.75
1664986665299,0.12109375,-0.8858032,0.06585693,1.0625,-1.859375,0.828125
1664986665345,0.12670898,-0.92803955,0.12982178,1.5625,-2.234375,-1.265625
1664986665376,0.099121094,-0.95318604,0.07318115,14.40625,3.9375,-0.53125
1664986665421,0.072753906,-1.006897,0.10491943,1.515625,10.578125,0.25
1664986665465,0.12060547,-1.0811157,0.15863037,-7.5625,-0.25,0.5
1664986665494,0.14672852,-1.1692505,0.2062378,-12.140625,-1.8125,0.984375
1664986665554,0.123046875,-1.2918091,0.082214355,-0.859375,-2.578125,2.453125
1664986665584,0.30908203,-1.2503052,-0.19903564,0.375,-1.8125,-1.78125
1664986665614,0.47436523,-0.9248657,0.031188965,-5.734375,5.90625,0.78125
1664986665663,0.27661133,-0.9314575,-0.013000488,1.078125,-15.65625,0.625
1664986665705,0.1953125,-0.9661255,-0.06329346,-8.484375,-12.984375,-5.359375
1664986665736,0.1887207,-0.8460083,0.035095215,-0.28125,-7.078125,-4.0625
1664986665782,0.22167969,-0.8052368,0.061950684,-3.34375,-3.8125,-1.265625
1664986665815,0.22509766,-0.8262329,0.09100342,-5.421875,-1.984375,1.59375
1664986665854,0.22509766,-0.8062134,0.1227417,-1.734375,-4.171875,3.28125
1664986665902,0.18969727,-0.8674927,0.13812256,-5.09375,-6.484375,3.375
1664986665929,0.1899414,-0.8467407,0.17547607,-2.78125,-6.640625,3.1875
1664986665977,0.1508789,-0.84747314,0.18231201,1.28125,-5.65625,4.25
1664986666033,0.13549805,-0.89190674,0.15179443,2.5625,-3.015625,4.21875
1664986666049,0.15478516,-0.8862915,0.16473389,1.640625,-1.53125,3.0625
1664986666097,0.15966797,-0.92388916,0.21282959,1.9375,1.921875,2.640625
1664986666139,0.14477539,-0.9636841,0.215271,1.453125,0.9375,1.75
1664986666171,0.14697266,-1.0662231,0.26849365,-1.4375,2.765625,-2.65625
1664986666216,0.18237305,-1.0886841,0.3078003,-7.515625,1.34375,-6.859375
1664986666245,0.23803711,-1.27594,0.2423706,2.171875,2.140625,-3.890625
1664986666292,0.27026367,-1.3330688,0.062438965,1.8125,0.6875,-4.375
1664986666335,0.27661133,-0.9937134,0.053894043,8.234375,3.65625,-11.96875
1664986666366,0.25390625,-0.9553833,0.032409668,6.984375,10.484375,-1.84375
1664986666410,0.2529297,-1.0283813,0.061950684,-2.28125,10.328125,-2.4375
1664986666455,0.26489258,-0.8875122,0.07733154,1.859375,0.796875,-3.359375
1664986666485,0.15893555,-0.91363525,0.05999756,2.71875,2.640625,-3.0625
1664986666529,0.10961914,-0.8543091,0.08074951,3.0625,6.375,-2.515625
1664986666578,0.075927734,-0.8237915,0.077819824,0.921875,9.15625,-2.796875
1664986666605,0.099365234,-0.82403564,0.11663818,10.28125,15.5,-1.75
1664986666650,0.13964844,-0.7581177,0.109802246,12.765625,15.671875,1.71875
1664986666724,0.15136719,-0.83380127,0.0758667,11.28125,10.828125,6.4375
1664986666728,0.13134766,-0.92852783,0.09564209,4.640625,2.5625,2.203125
1664986666799,0.14135742,-0.897522,0.14129639,3.609375,-4.140625,-0.625
1664986666805,0.08129883,-0.9417114,0.14471436,1.46875,-5.109375,-2.421875
1664986666846,0.05883789,-0.95098877,0.121032715,-0.1875,-3.796875,-3.46875
1664986666891,0.06274414,-1.0391235,0.16204834,4.15625,4.484375,-0.953125
1664986666920,0.10668945,-1.0762329,0.21820068,9.28125,7.3125,-0.609375
1664986666964,0.115722656,-1.208313,0.20404053,7.9375,1.5625,6.890625
1664986667009,0.17871094,-1.3862915,-0.10089111,0.28125,-2.515625,6.890625
1664986667038,0.3618164,-1.281311,-0.05670166,0.515625,-5.296875,4.078125
1664986667084,0.43823242,-0.98321533,-0.0071411133,4.4375,-9.8125,2.28125
1664986667129,0.28320312,-0.8274536,-0.16534424,-11.875,-13.90625,-0.984375
1664986667164,0.19677734,-0.8965454,-0.014221191,-16.625,-7.984375,-3.65625
1664986667205,0.1743164,-0.8545532,0.1359253,3.046875,-9.625,-2.578125
1664986667249,0.18725586,-0.83599854,0.08880615,-7.421875,-16.078125,-2.3125
1664986667283,0.19921875,-0.77593994,0.14471436,-13.28125,-8.53125,0.15625
1664986667324,0.16821289,-0.81695557,0.117126465,-7.671875,-3.78125,2.4375
1664986667354,0.18432617,-0.84869385,0.13812256,-4.640625,-4.140625,0.8125
1664986667398,0.17944336,-0.83013916,0.20355225,-4.609375,-3.296875,-0.234375
1664986667445,0.13452148,-0.84454346,0.18792725,-5.28125,-4.5625,-0.09375
1664986667474,0.14355469,-0.8484497,0.22528076,-5.09375,-1.640625,0.359375
1664986667519,0.15844727,-0.8574829,0.26507568,-0.984375,1.703125,1.796875
1664986667564,0.15698242,-0.8555298,0.26116943,3.609375,1.65625,2.109375
1664986667595,0.14208984,-0.91070557,0.24676514,4.171875,2.125,2.328125
1664986667640,0.123291016,-0.9092407,0.32757568,-1.265625,2.1875,-0.3125
1664986667686,0.072509766,-0.95635986,0.3463745,3.421875,5.53125,-2.375
1664986667714,0.07495117,-1.0159302,0.37347412,-3.0,5.640625,-1.828125
1664986667760,0.08935547,-1.0671997,0.3612671,3.390625,12.390625,-1.765625
1664986667792,0.15307617,-1.1414185,0.2994995,-5.140625,7.171875,3.125
1664986667833,0.1459961,-1.3633423,0.40570068,-18.515625,9.875,-4.765625
1664986667879,0.25854492,-1.3223267,0.3222046,-3.859375,7.578125,-9.5625
1664986667913,0.34423828,-1.1314087,0.18328857,10.484375,2.25,-12.03125
1664986667956,0.38623047,-1.02594,-0.09039307,5.078125,7.625,-7.28125
1664986667999,0.37426758,-0.9229126,-0.03741455,7.25,10.109375,-1.546875
1664986668030,0.24829102,-0.8184204,0.007751465,4.046875,-1.203125,-0.375
1664986668089,0.14013672,-0.89630127,0.06365967,-3.40625,-4.484375,-0.625
1664986668119,0.15673828,-0.84576416,0.17303467,-1.609375,-7.34375,-2.34375
1664986668154,0.13378906,-0.8484497,0.17156982,0.625,-9.78125,-2.28125
1664986668195,0.087402344,-0.8274536,0.13616943,-1.625,-10.5,0.03125
1664986668239,0.071777344,-0.82159424,0.15838623,1.484375,-5.6875,0.171875
1664986668273,0.107421875,-0.81500244,0.15179443,1.234375,-4.234375,-0.78125
1664986668314,0.1459961,-0.8406372,0.19281006,3.65625,-5.4375,-0.53125
1664986668344,0.087890625,-0.8423462,0.25872803,1.484375,-13.75,-0.59375
1664986668393,0.040771484,-0.88726807,0.25164795,2.296875,-11.171875,-0.46875
1664986668435,0.040771484,-0.9036255,0.26068115,8.5,-3.09375,0.40625
1664986668466,0.09008789,-0.94195557,0.28948975,3.390625,-4.609375,2.109375
1664986668511,0.07470703,-0.9697876,0.32562256,0.6875,-5.625,-0.03125
1664986668555,-0.017822266,-1.0471802,0.3961792,-7.703125,-5.96875,-2.09375
1664986668585,-0.0034179688,-1.0984497,0.2909546,-6.28125,-1.46875,-0.890625
1664986668630,0.1303711,-1.1570435,0.3270874,0.625,8.625,-1.921875
1664986668676,0.234375,-0.97906494,0.08270264,2.765625,11.0,-5.328125
1664986668705,0.2849121,-0.98883057,0.15203857,12.5625,11.609375,0.015625
1664986668750,0.32910156,-1.0332642,0.070251465,0.796875,-7.640625,0.328125
1664986668781,0.31079102,-0.90826416,0.10736084,-3.828125,-9.0625,-0.96875
1664986668825,0.17260742,-0.9529419,0.1293335,-7.96875,-12.3125,-2.4375
1664986668877,0.14501953,-0.8562622,0.18865967,-1.0625,-10.921875,-3.9375
1664986668945,0.12988281,-0.85723877,0.2333374,0.359375,-0.6875,-0.515625
1664986668949,0.13256836,-0.85357666,0.21331787,-4.03125,-1.890625,0.1875
1664986668998,0.16821289,-0.83306885,0.24432373,-0.3125,7.203125,0.78125
1664986669018,0.118896484,-0.86602783,0.25726318,2.828125,8.296875,3.203125
1664986669071,0.095214844,-0.88653564,0.30950928,-0.203125,5.0625,0.5
1664986669110,0.092041016,-0.9956665,0.32635498,-2.375,6.109375,-0.4375
1664986669140,0.17578125,-1.0354614,0.401062,-5.4375,7.015625,-0.546875
1664986669186,0.09472656,-1.0567017,0.4616089,-4.84375,8.390625,1.71875
1664986669232,0.015136719,-1.0650024,0.5055542,-2.546875,9.296875,-1.375
1664986669266,0.013427734,-1.135315,0.46697998,-9.421875,13.9375,-10.640625
1664986669306,0.32299805,-1.1755981,0.27142334,5.53125,14.78125,4.53125
1664986669336,0.21411133,-0.9495239,0.19158936,-13.03125,9.515625,-5.265625
1664986669394,0.2993164,-1.130188,0.15032959,20.0,2.578125,-2.53125
1664986669424,0.31469727,-1.0005493,-0.02545166,-2.171875,4.046875,1.9375
1664986669455,0.24707031,-0.9612427,4.272461E-4,-10.625,-2.796875,-4.8125
1664986669499,0.15795898,-0.9483032,-0.023986816,-5.546875,-13.203125,-3.25
1664986669544,0.13623047,-0.9993286,0.08392334,-4.84375,1.34375,-2.421875
1664986669576,0.1586914,-0.92437744,0.15008545,-4.484375,-5.09375,1.46875
1664986669625,0.15966797,-0.92803955,0.21234131,2.1875,-1.703125,1.1875
1664986669667,0.0715332,-0.95269775,0.24578857,2.375,-1.953125,-1.09375
1664986669695,0.06762695,-0.9192505,0.2880249,4.375,-0.875,-5.0625
1664986669741,0.037109375,-0.9212036,0.29632568,4.875,4.28125,-4.890625
1664986669774,0.056396484,-0.925354,0.23406982,5.75,5.453125,-6.859375
1664986669816,0.1027832,-0.85040283,0.2506714,11.125,9.703125,-7.25
1664986669862,0.08666992,-0.9168091,0.22357178,9.8125,10.921875,-4.515625
1664986669891,0.06689453,-0.9981079,0.2802124,7.328125,8.171875,-4.421875
1664986669935,0.052246094,-1.0967407,0.27288818,0.515625,2.578125,-6.21875
1664986669982,0.049560547,-1.0562134,0.26898193,-6.9375,-0.453125,-5.25
1664986670010,0.080322266,-0.94317627,0.33270264,-10.5625,-6.03125,-0.015625
1664986670054,0.12011719,-1.1155396,0.053649902,1.984375,-4.3125,3.09375
1664986670100,0.38989258,-1.0901489,0.05999756,18.53125,2.265625,12.984375
1664986670130,0.38085938,-0.81036377,0.36810303,-11.421875,-14.109375,6.390625
1664986670175,0.118896484,-1.0088501,0.04534912,-8.484375,-25.984375,0.6875
1664986670220,0.07299805,-0.880188,0.23968506,-6.859375,-20.984375,-6.734375
1664986670251,0.12597656,-0.8567505,0.30975342,3.203125,-9.015625,2.875
1664986670298,0.10424805,-0.77716064,0.1942749,5.375,-6.140625,4.96875
1664986670325,0.08959961,-0.8081665,0.21575928,12.375,4.59375,4.34375
1664986670370,0.12597656,-0.8609009,0.22991943,10.234375,6.375,4.375
1664986670415,0.16503906,-0.8320923,0.26971436,5.421875,5.40625,5.015625
1664986670444,0.140625,-0.8882446,0.28118896,7.125,4.75,6.546875
1664986670490,0.13867188,-0.87042236,0.2765503,5.71875,2.109375,5.0
1664986670534,0.13183594,-0.9573364,0.31048584,2.578125,3.78125,6.5
1664986670563,0.13916016,-0.940979,0.31951904,4.21875,3.515625,4.8125
1664986670643,0.14428711,-1.0515747,0.2904663,2.03125,0.109375,4.109375
1664986670656,0.19018555,-1.0923462,0.385437,-7.84375,-1.328125,-2.6875
1664986670684,0.13427734,-1.1045532,0.39813232,-10.5,-0.5,-10.046875
1664986670730,0.21459961,-1.2283325,0.3378296,-5.421875,-6.46875,-8.765625
1664986670776,0.19555664,-1.2544556,0.27703857,-7.65625,-2.796875,-0.203125
1664986670807,0.1616211,-1.0061646,0.21185303,12.828125,-0.5625,-13.671875
1664986670850,0.18481445,-0.8999634,0.10369873,11.953125,-2.5,-5.5625
1664986670883,0.22387695,-0.90753174,0.16400146,7.21875,7.5,0.328125
1664986670925,0.16967773,-0.82476807,0.07904053,5.109375,8.609375,1.15625
1664986670971,0.13964844,-0.8206177,0.0993042,12.15625,7.828125,1.5
1664986670999,0.10083008,-0.84942627,0.12615967,11.15625,10.421875,0.71875
1664986671045,0.1027832,-0.87579346,0.1539917,12.765625,9.328125,3.421875
1664986671091,0.119140625,-0.8440552,0.18182373,14.75,6.71875,5.71875
1664986671120,0.10205078,-0.8792114,0.15887451,11.8125,2.65625,1.234375
1664986671164,0.09863281,-0.8821411,0.12664795,13.78125,2.015625,1.46875
1664986671209,0.11401367,-0.8792114,0.1329956,12.40625,3.59375,3.015625
1664986671241,0.14038086,-0.93878174,0.1630249,12.5,-1.296875,7.3125
1664986671284,0.14282227,-1.0151978,0.18109131,9.0625,-1.09375,9.59375
1664986671313,0.12084961,-1.1069946,0.10662842,0.578125,-10.0,4.484375
1664986671363,0.11303711,-1.0991821,0.22113037,-3.546875,-7.125,-5.625
1664986671406,0.051757812,-1.2046509,0.11639404,-5.296875,-10.390625,-5.71875
1664986671435,0.15039062,-1.298645,0.0060424805,-4.921875,-8.125,-8.203125
1664986671483,0.36987305,-1.0239868,0.1149292,-1.28125,-0.25,-6.671875
1664986671525,0.34326172,-0.84942627,0.08343506,4.375,0.09375,-3.21875
1664986671555,0.20581055,-0.94317627,0.059265137,-0.78125,-10.125,-4.640625
1664986671602,0.13671875,-0.9402466,0.09588623,-3.09375,-3.15625,-8.453125
1664986671646,0.13769531,-0.8521118,0.13323975,-1.25,-1.078125,-9.78125
1664986671677,0.13427734,-0.892395,0.137146,-2.546875,1.625,-4.984375
1664986671722,0.1940918,-0.81378174,0.15325928,6.296875,7.90625,1.390625
1664986671766,0.15795898,-0.81451416,0.14520264,5.15625,7.21875,5.96875
1664986671796,0.1418457,-0.86016846,0.15423584,-1.125,1.8125,1.703125
1664986671841,0.11621094,-0.8689575,0.14056396,-0.734375,3.421875,0.84375
1664986671873,0.10058594,-0.90631104,0.21966553,0.65625,0.953125,-0.390625
1664986671932,0.07861328,-0.89385986,0.21307373,2.78125,0.078125,-0.21875
1664986671964,0.11669922,-0.954895,0.20819092,0.28125,3.84375,4.640625
1664986671991,0.09375,-0.98931885,0.19720459,-1.71875,3.984375,4.921875
1664986672034,0.096191406,-1.0713501,0.24285889,-13.078125,2.03125,-0.53125
1664986672081,0.14892578,-1.1799927,0.28704834,-33.953125,-3.984375,-9.421875
1664986672122,0.31054688,-1.3067017,0.354187,-18.21875,-11.84375,-0.578125
1664986672156,0.15625,-1.381897,0.35247803,-24.484375,-14.40625,-2.046875
1664986672199,0.15527344,-0.9846802,0.13812256,20.0625,-8.109375,-18.828125
1664986672231,0.13330078,-0.9102173,0.11639404,12.09375,-2.859375,-5.078125
1664986672275,0.18041992,-0.92755127,0.15057373,7.515625,3.9375,-1.0625
1664986672304,0.19116211,-0.8706665,0.097595215,4.859375,6.03125,2.390625
1664986672349,0.13208008,-0.8452759,0.15545654,8.0625,4.765625,4.21875
1664986672396,0.0925293,-0.80059814,0.124694824,8.703125,6.828125,1.640625
1664986672424,0.11401367,-0.8233032,0.109802246,5.109375,6.140625,2.84375
1664986672474,0.096191406,-0.80426025,0.1395874,3.015625,2.53125,3.21875
1664986672513,0.07836914,-0.7774048,0.2098999,8.671875,1.234375,3.921875
1664986672544,0.05444336,-0.8694458,0.19500732,1.796875,-4.1875,3.765625
1664986672594,0.059570312,-0.88116455,0.21087646,-0.25,-5.390625,0.96875
1664986672635,0.061035156,-0.91485596,0.23431396,5.046875,-3.171875,0.671875
1664986672666,0.04321289,-0.9302368,0.24261475,5.59375,1.921875,0.0
1664986672710,0.07006836,-0.99835205,0.19378662,4.078125,1.953125,0.53125
1664986672756,0.12890625,-1.0056763,0.2994995,8.46875,6.859375,3.640625
1664986672785,0.091552734,-1.0925903,0.36883545,3.96875,3.9375,6.109375
1664986672830,0.057128906,-1.1958618,0.101257324,-3.953125,-5.78125,0.78125
1664986672861,0.20629883,-1.4168091,0.0289917,-7.53125,-2.09375,4.625
1664986672905,0.35717773,-1.253479,0.21990967,-11.890625,8.296875,0.015625
1664986672956,0.28979492,-1.0227661,0.19158936,10.125,4.203125,-0.75
1664986672986,0.22753906,-0.8477173,0.08709717,-0.78125,-8.21875,-2.453125
1664986673025,0.18408203,-0.9089966,0.059265137,0.65625,-2.6875,-0.625
1664986673074,0.1730957,-0.86065674,0.059509277,1.0,-2.09375,-0.46875
1664986673100,0.18041992,-0.8731079,0.14056396,4.390625,3.328125,0.03125
1664986673145,0.15991211,-0.80596924,0.1984253,1.453125,0.609375,0.734375
1664986673219,0.12695312,-0.7515259,0.1696167,7.78125,-1.59375,1.0625
1664986673227,0.13061523,-0.79815674,0.11883545,10.21875,2.328125,5.234375
1664986673265,0.15917969,-0.8208618,0.16375732,4.09375,4.671875,7.484375
1664986673296,0.15698242,-0.848938,0.19012451,1.359375,3.5,4.421875
1664986673340,0.14013672,-0.97198486,0.22210693,0.265625,0.0625,1.65625
1664986673385,0.13012695,-0.9109497,0.23040771,3.421875,-1.375,1.8125
1664986673417,0.16357422,-0.90753174,0.2526245,-6.359375,-4.109375,-0.546875
1664986673461,0.14013672,-1.0440063,0.29510498,-6.5625,0.609375,-7.125
1664986673505,0.107421875,-1.0779419,0.3180542,-9.515625,3.125,-11.234375
1664986673537,0.16772461,-1.1672974,0.30560303,-5.203125,-0.515625,-9.296875
1664986673579,0.24829102,-1.4282837,0.23431396,-5.171875,-0.328125,-2.546875
1664986673625,0.28027344,-1.2051392,0.15911865,2.84375,3.03125,-12.9375
1664986673658,0.2121582,-0.9155884,-0.018371582,10.03125,5.859375,-11.703125
1664986673704,0.2055664,-0.9385376,0.07342529,4.96875,16.578125,-5.53125
1664986673746,0.19238281,-1.0032349,0.0848999,0.625,15.453125,-2.0
1664986673775,0.22265625,-0.9805298,0.13226318,0.328125,8.25,-1.375
1664986673821,0.14526367,-0.909729,0.1395874,2.390625,2.96875,-4.484375
1664986673849,0.060302734,-0.83551025,0.08709717,5.03125,2.65625,-6.609375
1664986673896,0.044433594,-0.76885986,0.11004639,3.09375,4.484375,-0.96875
1664986673940,0.05834961,-0.75372314,0.10345459,3.46875,7.375,2.890625
1664986673969,0.053222656,-0.74835205,0.08831787,-0.578125,3.703125,2.21875
1664986674020,0.06542969,-0.81622314,0.15057373,3.28125,1.15625,2.59375
1664986674066,0.060791016,-0.87042236,0.18450928,-0.59375,-5.0,1.265625
1664986674089,0.055419922,-0.9421997,0.1942749,2.90625,-4.765625,0.375
1664986674135,0.07104492,-1.0115356,0.21917725,4.03125,-3.96875,-0.109375
1664986674181,0.067871094,-1.0159302,0.28118896,1.9375,-5.40625,0.484375
1664986674225,0.03466797,-1.0903931,0.31072998,-0.53125,-7.75,3.59375
1664986674255,0.048339844,-1.2564087,0.23773193,-8.234375,-9.265625,3.1875
1664986674291,0.18481445,-1.4519653,0.1642456,0.515625,-2.375,4.046875
1664986674329,0.35205078,-1.2078247,0.090026855,7.109375,1.078125,6.03125
1664986674375,0.28735352,-0.9558716,0.10809326,4.75,-0.265625,1.21875
1664986674410,0.16088867,-0.89678955,0.032165527,-1.171875,-8.0625,-1.0625
1664986674485,0.13256836,-0.87286377,0.070007324,-0.59375,-5.125,0.515625
1664986674497,0.21142578,-0.8201294,0.097351074,3.4375,2.125,0.09375
1664986674524,0.22558594,-0.8713989,0.18304443,-1.28125,-3.90625,2.171875
1664986674570,0.1418457,-0.83599854,0.1671753,3.140625,-4.78125,0.15625
1664986674614,0.12109375,-0.7959595,0.16888428,4.53125,-2.15625,-0.328125
1664986674644,0.12866211,-0.815979,0.16790771,2.484375,-3.71875,2.671875
1664986674689,0.15209961,-0.8032837,0.19476318,1.921875,-4.09375,2.015625
1664986674768,0.14160156,-0.88604736,0.23529053,4.15625,-4.875,2.703125
1664986674774,0.12866211,-0.9092407,0.2140503,5.84375,-8.515625,2.71875
1664986674809,0.08862305,-0.98516846,0.22210693,8.890625,-0.171875,2.34375
1664986674841,0.0847168,-0.9067993,0.20184326,5.1875,-4.03125,-2.34375
1664986674887,0.04663086,-0.94854736,0.26898193,-11.171875,-7.546875,-3.90625
1664986674932,0.107421875,-1.0918579,0.31903076,-8.421875,-2.5625,-7.796875
1664986674966,0.2211914,-1.2942505,0.32366943,-1.171875,1.34375,-1.578125
1664986675007,0.31176758,-1.4712524,0.24017334,-3.796875,-5.5,0.28125
1664986675050,0.31567383,-1.2964478,0.21063232,15.9375,-0.828125,-12.0
1664986675079,0.19262695,-0.954895,0.035095215,19.71875,-7.34375,-10.375
1664986675125,0.18310547,-0.9224243,0.04827881,5.046875,-1.4375,-4.15625
1664986675171,0.18408203,-0.9421997,0.054626465,1.625,6.609375,1.53125
1664986675202,0.15063477,-0.84161377,0.07366943,5.46875,5.328125,2.5
1664986675244,0.09741211,-0.82281494,0.0770874,5.46875,5.375,2.5
1664986675290,0.095947266,-0.7803345,0.09490967,5.84375,5.15625,1.96875
1664986675322,0.08569336,-0.78863525,0.08074951,3.84375,5.5,2.109375
1664986675364,0.07397461,-0.77008057,0.1293335,4.953125,5.765625,2.203125
1664986675398,0.05810547,-0.81500244,0.12445068,6.828125,3.296875,2.140625
1664986675440,0.09399414,-0.8843384,0.11199951,0.46875,-0.203125,1.359375
1664986675486,0.09692383,-0.8965454,0.13348389,2.34375,-2.25,0.46875
1664986675515,0.07495117,-0.9729614,0.17279053,3.09375,-0.3125,-0.34375
1664986675561,0.07324219,-1.0037231,0.17059326,4.484375,1.328125,0.859375
1664986675604,0.09716797,-1.0774536,0.1918335,0.515625,-0.484375,0.71875
1664986675638,0.09277344,-1.1226196,0.24359131,-2.25,-0.0625,2.21875
1664986675681,0.09643555,-1.2195435,0.14349365,-2.25,-2.375,6.75
1664986675755,0.22583008,-1.4014282,0.0033569336,5.078125,-1.765625,9.234375
1664986675760,0.45263672,-1.0542603,0.112976074,8.96875,2.0,9.0
1664986675798,0.26831055,-0.9468384,0.0028686523,1.265625,-10.5,2.96875
1664986675833,0.20751953,-0.93634033,-0.039123535,0.375,-15.21875,-3.171875
1664986675875,0.2006836,-0.87286377,0.018249512,-9.1875,-1.453125,-3.5625
1664986675936,0.1977539,-0.8442993,0.07366943,-6.796875,-4.46875,-2.6875
1664986675955,0.20581055,-0.8562622,0.13812256,-5.78125,-1.0,-1.796875
1664986675993,0.19458008,-0.78863525,0.15692139,-1.578125,0.3125,-0.90625
1664986676042,0.13916016,-0.81329346,0.14227295,3.65625,-0.28125,0.53125
1664986676070,0.119140625,-0.7954712,0.1564331,3.296875,0.28125,-1.359375
1664986676115,0.13720703,-0.82818604,0.15472412,5.046875,2.671875,1.265625
1664986676160,0.18286133,-0.8743286,0.16400146,3.234375,4.84375,1.703125
1664986676191,0.17919922,-0.87945557,0.17547607,6.1875,3.53125,2.4375
1664986676235,0.1665039,-0.93756104,0.17962646,0.0625,-0.109375,3.03125
1664986676279,0.15136719,-0.956604,0.21575928,-1.5625,0.09375,2.28125
1664986676311,0.13891602,-1.0425415,0.2501831,-3.140625,1.171875,-0.59375
1664986676355,0.1262207,-1.0994263,0.36297607,-9.125,1.875,-7.46875
1664986676384,0.12524414,-1.2593384,0.27923584,-3.546875,1.4375,-14.03125
1664986676430,0.29882812,-1.4429321,0.14398193,-7.515625,-3.46875,-2.375
1664986676475,0.29077148,-1.2261353,0.12322998,2.5,5.96875,-12.78125
1664986676505,0.21679688,-0.9265747,0.0021362305,6.453125,8.203125,-9.15625
1664986676549,0.22143555,-0.9282837,0.0016479492,-0.5625,14.9375,-2.328125
1664986676596,0.18457031,-0.90753174,0.04437256,4.671875,12.828125,-2.59375
1664986676624,0.15307617,-0.80059814,0.042907715,8.296875,12.640625,-2.15625
1664986676672,0.12646484,-0.8953247,0.085632324,1.421875,10.28125,-0.9375
1664986676716,0.106933594,-0.8740845,0.12176514,-0.890625,4.34375,-3.0625
1664986676744,0.10864258,-0.8789673,0.08319092,4.671875,6.28125,-0.84375
1664986676793,0.0859375,-0.8389282,0.10760498,5.28125,7.296875,-0.96875
1664986676822,0.07910156,-0.7896118,0.13275146,8.8125,6.90625,0.046875
1664986676865,0.030517578,-0.84820557,0.10003662,10.9375,9.53125,1.671875
1664986676910,0.072753906,-0.8687134,0.121032715,5.671875,2.890625,1.21875
1664986676940,0.099121094,-0.9121704,0.15325928,2.1875,-3.546875,-1.125
1664986676986,0.053710938,-0.99957275,0.17547607,2.171875,-5.890625,-2.234375
1664986677060,0.040527344,-1.0569458,0.17254639,5.296875,0.46875,-1.1875
1664986677065,0.06616211,-1.067688,0.20428467,3.90625,-1.078125,-2.5
1664986677106,0.08105469,-1.1785278,0.22039795,-8.390625,-9.53125,-1.203125
1664986677153,0.16186523,-1.3406372,0.089538574,-10.28125,-8.0,0.4375
1664986677179,0.30493164,-1.2476196,0.0289917,5.625,-5.109375,0.859375
1664986677226,0.359375,-0.92803955,0.0446167,7.4375,-6.953125,3.703125
1664986677274,0.16625977,-0.9338989,-0.028381348,-0.3125,-17.765625,1.796875
1664986677300,0.14526367,-0.9463501,0.027038574,-5.34375,-16.921875,-1.734375
1664986677344,0.16894531,-0.80841064,0.062194824,-0.6875,-12.5625,-2.703125
1664986677375,0.14233398,-0.83721924,0.078063965,-2.078125,-7.171875,-0.515625
1664986677421,0.14013672,-0.8623657,0.09051514,0.984375,-1.171875,2.0
1664986677467,0.15600586,-0.8303833,0.13861084,2.421875,3.9375,2.90625
1664986677497,0.1586914,-0.8821411,0.13909912,-0.703125,1.203125,3.21875
1664986677540,0.14208984,-0.8484497,0.15081787,1.6875,-1.3125,2.5625
1664986677586,0.12866211,-0.8882446,0.16253662,-1.484375,-0.59375,1.046875
1664986677614,0.15161133,-0.8792114,0.18865967,-5.078125,-2.1875,1.953125
1664986677660,0.15527344,-0.9229126,0.2230835,-4.671875,-4.53125,6.4375
1664986677705,0.13330078,-0.9651489,0.20135498,2.84375,3.796875,4.96875
1664986677735,0.068359375,-1.034729,0.27508545,-4.34375,2.234375,1.015625
1664986677779,0.08984375,-1.1262817,0.33099365,-11.90625,3.390625,-7.671875
1664986677809,0.15893555,-1.260315,0.29144287,-2.953125,8.390625,-8.546875
1664986677854,0.2697754,-1.4417114,0.16253662,-5.78125,5.140625,2.5625
1664986677901,0.28027344,-1.1057739,0.121032715,11.609375,5.046875,-7.578125
1664986677929,0.2265625,-0.84039307,0.023864746,15.96875,1.4375,-4.140625
1664986677975,0.18847656,-0.958313,0.058044434,2.875,-0.046875,0.296875
1664986678021,0.23095703,-0.9595337,0.039489746,-2.140625,-7.265625,-0.375
1664986678048,0.21386719,-0.897522,0.07220459,-0.421875,-7.0625,-1.671875
1664986678094,0.13134766,-0.8921509,0.06756592,0.4375,-4.046875,-2.421875
1664986678144,0.09863281,-0.87457275,0.11566162,2.828125,-2.109375,-0.09375
1664986678172,0.106933594,-0.8452759,0.11517334,5.921875,3.265625,2.59375
1664986678214,0.10546875,-0.70562744,0.10687256,9.421875,5.84375,3.546875
1664986678307,0.083740234,-0.7439575,0.10784912,11.53125,3.65625,3.046875
1664986678321,0.06762695,-0.8374634,0.12054443,11.125,1.734375,2.15625
1664986678339,0.087890625,-0.9026489,0.1161499,7.84375,-0.546875,-0.421875
1664986678364,0.1015625,-0.92144775,0.1539917,7.421875,1.265625,-3.0625
1664986678410,0.049560547,-0.95147705,0.19866943,11.109375,1.296875,-2.421875
1664986678455,0.09643555,-1.0371704,0.14154053,9.734375,2.3125,-0.5
1664986678486,0.1508789,-1.1213989,0.20843506,-0.25,1.46875,3.65625
1664986678530,0.18359375,-1.15802,0.2736206,-9.59375,-5.296875,6.28125
1664986678574,0.16967773,-1.5286255,0.061462402,-8.9375,-11.0625,2.28125
1664986678604,0.33520508,-1.3521118,0.0021362305,-8.78125,-9.984375,-0.5625
1664986678649,0.35498047,-0.89556885,0.01751709,7.65625,-3.265625,3.6875
1664986678697,0.17285156,-0.8623657,0.019714355,9.25,-8.78125,3.28125
1664986678724,0.1394043,-0.9849243,-0.0095825195,0.0625,-6.296875,1.5625
1664986678773,0.17602539,-0.81866455,0.02557373,3.03125,-1.25,1.0625
1664986678816,0.19897461,-0.80426025,0.07659912,0.421875,-1.015625,2.390625
1664986678844,0.15795898,-0.7883911,0.10882568,1.171875,-0.875,2.859375
1664986678889,0.12670898,-0.7984009,0.10223389,2.171875,-0.34375,3.390625
1664986678920,0.17578125,-0.7925415,0.11859131,1.28125,0.109375,3.484375
1664986678965,0.1772461,-0.8491821,0.1395874,-5.96875,-2.9375,2.125
1664986679009,0.18554688,-0.8987427,0.16448975,3.671875,0.96875,-0.0625
1664986679044,0.1899414,-0.8731079,0.15765381,2.890625,1.84375,-0.5625
1664986679086,0.1652832,-0.8933716,0.16448975,3.28125,0.984375,0.453125
1664986679131,0.16259766,-0.9282837,0.18231201,3.671875,-1.1875,2.03125
1664986679160,0.17700195,-1.0088501,0.17889404,0.90625,-2.25,0.796875
1664986679207,0.1928711,-1.1050415,0.1593628,0.28125,-5.0625,-3.0625
1664986679249,0.25708008,-1.2561646,0.15081787,6.828125,-2.5,-5.40625
1664986679282,0.28466797,-1.437561,0.07659912,8.0625,-12.25,2.734375
1664986679324,0.3232422,-1.2090454,0.109802246,15.90625,8.65625,-10.640625
1664986679355,0.23095703,-0.95269775,-0.050354004,6.1875,5.875,-8.28125
1664986679404,0.21069336,-0.9639282,-0.05645752,-6.046875,6.90625,-4.78125
1664986679445,0.22949219,-0.90631104,-0.045959473,-0.359375,12.40625,-3.609375
1664986679474,0.19116211,-0.8711548,0.016540527,-1.390625,11.03125,-3.265625
1664986679522,0.18408203,-0.83428955,0.028259277,0.65625,8.34375,-2.890625
1664986679601,0.1496582,-0.79693604,0.06341553,0.75,8.625,-1.25
1664986679609,0.111083984,-0.7324829,0.04559326,3.953125,8.34375,0.484375
1664986679641,0.08911133,-0.74786377,0.08074951,9.75,7.0,2.921875
1664986679684,0.095703125,-0.81134033,-0.0017700195,8.171875,4.34375,6.5
1664986679717,0.15405273,-0.8604126,0.038024902,3.921875,1.453125,6.515625
1664986679767,0.16210938,-0.91070557,0.12835693,-3.515625,-4.75,4.984375
1664986679804,0.06738281,-0.97662354,0.16448975,-0.96875,-6.171875,1.09375
1664986679835,0.059326172,-1.0142212,0.11395264,4.390625,-1.109375,2.546875
1664986679882,0.10449219,-1.0845337,0.078308105,1.796875,1.921875,4.921875
1664986679908,0.16259766,-1.1812134,0.08050537,-4.625,1.609375,7.375
1664986679955,0.23339844,-1.4107056,0.09881592,-5.296875,2.875,11.1875
1664986680013,0.37475586,-1.2456665,0.0060424805,9.578125,5.6875,6.21875
1664986680030,0.3828125,-0.9649048,-0.06036377,5.875,6.71875,0.28125
1664986680075,0.31591797,-0.9277954,-0.008117676,1.078125,-0.421875,-0.953125
1664986680122,0.26123047,-0.89068604,-0.06402588,0.140625,-4.71875,-4.984375
1664986680154,0.2939453,-0.81695557,0.028503418,-6.015625,-6.15625,-7.453125
1664986680195,0.26513672,-0.8418579,0.05706787,-3.796875,-9.078125,-4.328125
1664986680240,0.19506836,-0.8706665,0.026550293,10.265625,9.5625,-2.53125
1664986680273,0.18457031,-0.76446533,0.11395264,10.296875,7.28125,-3.25
1664986680315,0.18017578,-0.7817993,0.055114746,1.328125,-1.203125,0.609375
1664986680348,0.17944336,-0.8428345,0.06561279,1.671875,3.234375,-0.09375
1664986680390,0.2241211,-0.8389282,0.07318115,1.0625,-2.6875,-1.171875
1664986680435,0.23364258,-0.88531494,0.08441162,-3.40625,-4.78125,-1.59375
1664986680510,0.18945312,-0.8875122,0.09857178,-1.734375,1.09375,-1.21875
1664986680517,0.1665039,-0.9380493,0.15374756,-0.4375,3.15625,0.8125
1664986680555,0.17480469,-0.991272,0.14691162,-1.484375,5.109375,2.5625
1664986680587,0.19750977,-1.0962524,0.16693115,-9.78125,7.3125,-1.5
1664986680631,0.22949219,-1.210022,0.21575928,-17.71875,1.765625,-10.125
1664986680675,0.38891602,-1.381897,0.09564209,-11.3125,-3.8125,-1.6875
1664986680705,0.29101562,-1.2437134,0.15130615,-19.0625,-11.40625,-9.0625
1664986680754,0.2536621,-1.0159302,-0.0051879883,3.765625,-0.765625,-10.84375
1664986680799,0.25,-0.9402466,-0.06304932,4.828125,4.125,-2.921875
1664986680824,0.27148438,-0.944397,0.007751465,2.4375,4.921875,-2.78125
1664986680900,0.22241211,-0.91656494,0.031921387,2.84375,-0.15625,-0.484375
1664986680905,0.15893555,-0.8665161,0.02142334,7.296875,-0.578125,-0.1875
1664986680947,0.1394043,-0.80059814,0.03656006,9.84375,3.40625,-0.4375
1664986680989,0.119140625,-0.7839966,0.050720215,9.328125,1.1875,1.109375
1664986681019,0.12646484,-0.74591064,0.0993042,9.484375,0.734375,1.734375
1664986681063,0.14379883,-0.8533325,0.05609131,-2.921875,-1.234375,1.359375
1664986681110,0.12939453,-0.87042236,0.12860107,-2.71875,-8.703125,0.984375
1664986681139,0.09741211,-0.8711548,0.19451904,-4.171875,-14.53125,-2.15625
1664986681186,0.056152344,-0.9351196,0.13323975,-1.984375,-10.984375,-3.15625
1664986681235,0.078125,-0.97857666,0.15057373,6.34375,-1.796875,-0.984375
1664986681266,0.087402344,-1.0361938,0.16448975,-0.90625,5.578125,-7.203125
1664986681303,0.060546875,-1.1211548,0.17449951,2.421875,14.171875,-5.875
1664986681334,0.076171875,-1.1743774,0.15911865,0.03125,3.546875,4.234375
1664986681380,0.14916992,-1.3613892,0.14959717,2.75,-2.234375,7.796875
1664986681424,0.29516602,-1.1565552,4.272461E-4,16.890625,8.21875,2.6875
1664986681455,0.3059082,-0.89312744,-0.062316895,11.59375,13.59375,-7.9375
1664986681499,0.24926758,-1.0144653,-0.015930176,-9.375,13.1875,-14.296875
1664986681544,0.21020508,-0.9116821,0.08416748,-14.8125,11.46875,-16.046875
1664986681576,0.1899414,-0.8652954,0.08905029,-9.109375,-5.546875,-11.640625
1664986681620,0.15722656,-0.89508057,0.062438965,-9.484375,-4.421875,-4.515625
1664986681665,0.1574707,-0.8098755,0.09710693,1.984375,-0.84375,1.328125
1664986681695,0.12402344,-0.7637329,0.07904053,2.765625,-2.875,5.8125
1664986681739,0.1159668,-0.82647705,0.1149292,6.578125,-3.078125,8.046875
1664986681817,0.11279297,-0.8274536,0.15545654,10.953125,2.078125,7.3125
1664986681821,0.15014648,-0.88165283,0.113708496,3.703125,-7.90625,5.390625
1664986681861,0.12939453,-0.91412354,0.1383667,7.453125,-6.734375,3.703125
1664986681890,0.15795898,-0.925354,0.13153076,2.140625,-2.375,5.25
1664986681934,0.1340332,-0.9385376,0.19525146,3.875,2.921875,2.515625
1664986681980,0.12011719,-1.017395,0.1864624,6.09375,7.0625,0.109375
1664986682008,0.11352539,-1.147522,0.21844482,-0.59375,10.078125,-5.734375
1664986682054,0.19262695,-1.2901001,0.18499756,-12.21875,1.390625,-6.296875
1664986682105,0.21728516,-1.4485474,0.16253662,-4.296875,-13.265625,1.71875
1664986682131,0.13989258,-1.1538696,0.04949951,11.59375,-7.171875,-14.453125
1664986682190,0.21411133,-0.95806885,-0.031066895,7.953125,0.3125,-8.703125
1664986682221,0.20825195,-0.92071533,-0.018371582,1.046875,12.890625,4.609375
1664986682250,0.22290039,-0.9170532,-0.02911377,4.796875,11.875,0.484375
1664986682295,0.19897461,-0.83013916,-0.012268066,7.3125,3.0625,2.765625
1664986682341,0.15258789,-0.86676025,0.06781006,3.953125,-5.09375,2.015625
1664986682371,0.103515625,-0.8447876,0.029724121,6.703125,-0.59375,1.4375
1664986682415,0.09008789,-0.8140259,0.026794434,7.65625,-2.890625,2.5
1664986682446,0.08129883,-0.7918091,0.039001465,9.203125,-1.75,2.328125
1664986682490,0.084472656,-0.83721924,0.038269043,5.53125,-2.171875,2.15625
1664986682535,0.10229492,-0.87457275,0.04925537,3.453125,-0.984375,3.015625
1664986682564,0.103759766,-0.9402466,0.11126709,5.421875,-2.359375,2.390625
1664986682609,0.10546875,-0.9373169,0.11541748,3.75,-4.546875,0.359375
1664986682655,0.100097656,-0.9378052,0.109313965,5.703125,-0.6875,0.171875
1664986682686,0.103759766,-1.0193481,0.07147217,3.5,-2.453125,3.03125
1664986682730,0.1640625,-1.1167603,0.09075928,-3.3125,-4.953125,3.0
1664986682778,0.20507812,-1.2163696,0.10394287,-15.296875,-6.71875,4.515625
1664986682807,0.19018555,-1.423645,0.109313965,-9.0625,-7.6875,2.5
1664986682849,0.26708984,-1.2310181,-0.06427002,-0.078125,-8.203125,-1.03125
1664986682881,0.33203125,-0.9209595,-0.093322754,3.015625,3.375,0.578125
1664986682926,0.26538086,-0.9360962,-0.028137207,-1.953125,-1.6875,0.5625
1664986682969,0.2121582,-0.9126587,0.023376465,-7.3125,-7.53125,-2.3125
1664986683003,0.18530273,-0.8130493,0.05316162,-1.109375,-4.53125,-6.21875
1664986683045,0.13842773,-0.86431885,0.13690186,-3.9375,-3.78125,-6.09375
1664986683096,0.18066406,-0.861145,0.074401855,-1.875,2.28125,-3.9375
1664986683121,0.1640625,-0.78082275,0.061950684,-1.703125,4.46875,-0.78125
1664986683165,0.17895508,-0.81817627,0.085876465,-5.109375,2.96875,0.671875
1664986683212,0.15161133,-0.80670166,0.10784912,-1.203125,2.90625,-0.59375
1664986683242,0.09838867,-0.89068604,0.16741943,2.1875,-1.9375,-1.09375
1664986683286,0.12402344,-0.913147,0.19891357,-1.421875,-1.78125,-2.015625
1664986683335,0.12548828,-0.9155884,0.19915771,-1.078125,0.96875,-0.71875
1664986683363,0.13061523,-0.94537354,0.18450928,-2.84375,2.84375,0.09375
1664986683436,0.11303711,-0.9939575,0.19769287,-8.0,0.84375,-1.296875
1664986683443,0.095214844,-1.0650024,0.29437256,-2.578125,7.203125,-6.03125
1664986683481,0.18261719,-1.131897,0.20111084,-9.21875,8.921875,-7.5625
1664986683526,0.28393555,-1.3323364,0.20648193,-11.03125,14.65625,5.3125
1664986683555,0.18115234,-1.3206177,0.1749878,-4.796875,8.09375,-5.078125
1664986683598,0.21948242,-1.0708618,0.07659912,11.75,6.109375,-12.421875
1664986683644,0.18603516,-0.972229,0.030212402,6.546875,8.578125,-5.5
1664986683675,0.18945312,-0.96417236,0.015319824,6.65625,8.859375,-1.859375
1664986683724,0.2084961,-0.8718872,0.032409668,8.890625,4.265625,1.296875
1664986683770,0.15576172,-0.8555298,0.06536865,7.21875,3.84375,3.21875
1664986683796,0.09082031,-0.91656494,0.05633545,7.171875,-0.171875,0.359375
1664986683844,0.078125,-0.8081665,0.073913574,1.921875,-3.25,1.515625
1664986683878,0.107910156,-0.819397,0.12591553,13.5,1.125,5.515625
1664986683915,0.08105469,-0.7817993,0.094177246,10.5625,-1.484375,4.703125
1664986683959,0.053466797,-0.7971802,0.090026855,9.75,-4.625,4.359375
1664986683993,0.05493164,-0.8755493,0.08416748,7.203125,-5.453125,1.46875
1664986684036,0.09301758,-0.90948486,0.14178467,6.390625,-5.3125,1.234375
1664986684095,0.09667969,-0.9939575,0.14031982,2.171875,-11.296875,-0.703125
1664986684111,0.10888672,-0.9963989,0.13568115,3.640625,-9.09375,2.3125
1664986684155,0.06762695,-1.0928345,0.20379639,-7.0625,-8.046875,2.21875
1664986684198,0.053466797,-1.1533813,0.1564331,-2.484375,-8.875,-3.515625
1664986684231,0.1809082,-1.4214478,-0.03741455,1.875,-10.859375,0.515625
1664986684276,0.3425293,-1.3047485,-0.0032348633,4.109375,0.453125,8.0625
1664986684319,0.37036133,-0.91778564,0.046325684,19.203125,0.40625,5.9375
1664986684350,0.25268555,-0.8740845,-0.010314941,6.515625,-13.609375,-1.46875
1664986684395,0.19458008,-0.942688,-0.08648682,-1.890625,-6.625,-4.015625
1664986684426,0.20898438,-0.8135376,-0.010070801,3.8125,-2.734375,-1.546875
1664986684470,0.2512207,-0.8562622,0.045837402,-4.5,-6.21875,2.3125
1664986684515,0.23754883,-0.8735962,0.06781006,-6.21875,-7.015625,2.21875
1664986684545,0.1694336,-0.81207275,0.04901123,1.296875,-7.0625,0.71875
1664986684593,0.1665039,-0.82940674,0.066589355,3.984375,-1.125,1.3125
1664986684635,0.14770508,-0.79473877,0.12860107,6.5,3.09375,3.015625
1664986684667,0.15942383,-0.8858032,0.093688965,1.109375,-3.609375,2.8125
1664986684739,0.18334961,-0.9194946,0.1005249,-3.453125,-2.5625,1.71875
1664986684755,0.2175293,-0.92633057,0.14154053,2.28125,-1.375,3.390625
1664986684784,0.19335938,-0.9734497,0.16448975,-0.625,-0.78125,4.65625
1664986684834,0.2133789,-1.0215454,0.14154053,-0.203125,-2.296875,5.296875
1664986684859,0.20678711,-1.1160278,0.20794678,-8.765625,-0.78125,1.375
1664986684905,0.19799805,-1.2051392,0.25506592,-6.046875,3.84375,-10.453125
1664986684949,0.29736328,-1.28302,0.18914795,-0.21875,-6.984375,1.34375
1664986684984,0.21923828,-1.1987915,-0.028137207,4.875,-7.9375,-6.984375
1664986685024,0.2705078,-0.8882446,-0.0635376,3.15625,5.578125,-16.375
1664986685070,0.26489258,-0.9199829,-0.04083252,2.421875,14.921875,-2.328125
1664986685100,0.26757812,-0.96099854,-0.010070801,-0.484375,16.90625,-1.1875
1664986685144,0.23779297,-0.9356079,0.039978027,0.359375,10.875,0.796875
1664986685207,0.20800781,-0.89923096,0.030456543,4.828125,8.34375,-0.390625
1664986685219,0.12817383,-0.84503174,0.015808105,0.4375,4.8125,-4.640625
1664986685264,0.12988281,-0.80059814,0.059265137,2.953125,7.28125,-1.4375
1664986685310,0.087646484,-0.7827759,0.089782715,3.15625,10.734375,-0.234375
1664986685341,0.07446289,-0.81378174,0.054626465,3.703125,11.9375,0.90625
1664986685384,0.11816406,-0.89385986,0.093688965,1.453125,10.46875,1.4375
1664986685416,0.15454102,-0.8911743,0.10687256,0.265625,10.375,-0.96875
1664986685461,0.12988281,-0.9331665,0.08807373,3.453125,7.234375,0.078125
1664986685507,0.13378906,-0.9595337,0.117370605,5.234375,6.8125,-0.46875
1664986685535,0.12109375,-1.0269165,0.073913574,1.5,2.9375,1.984375
1664986685579,0.12841797,-1.1165161,0.11590576,-14.859375,-11.59375,-0.359375
1664986685625,0.14111328,-1.2046509,0.15960693,-13.40625,-8.46875,0.234375
1664986685655,0.21606445,-1.3418579,0.093688965,-9.625,-4.859375,-0.46875
1664986685700,0.41577148,-1.2192993,0.07659912,-2.796875,-3.765625,-2.21875
1664986685745,0.36254883,-0.9356079,0.019226074,5.859375,1.078125,-0.671875
1664986685781,0.25830078,-0.95391846,0.020202637,1.90625,-10.765625,-0.75
1664986685819,0.19042969,-0.9038696,0.030944824,6.4375,-8.5625,-1.5
1664986685863,0.16064453,-0.8308716,0.01727295,2.484375,-7.390625,-5.5
1664986685897,0.22485352,-0.8418579,0.12030029,-2.046875,-4.546875,-4.1875
1664986685942,0.21582031,-0.8464966,0.13421631,-2.5,-4.3125,-1.453125
1664986685969,0.19140625,-0.803772,0.113464355,0.15625,-1.703125,-0.1875
1664986686031,0.14257812,-0.80670166,0.07733154,-5.515625,-1.671875,-0.078125
1664986686060,0.15136719,-0.8442993,0.15447998,-2.640625,1.359375,0.015625
1664986686090,0.16870117,-0.8648071,0.18133545,1.234375,0.171875,1.609375
1664986686134,0.18945312,-0.90216064,0.17352295,4.546875,-2.015625,2.265625
1664986686179,0.18725586,-0.9121704,0.18060303,12.09375,1.796875,4.953125
1664986686211,0.15771484,-0.9561157,0.1984253,7.734375,-9.0,5.75
1664986686254,0.14990234,-1.0083618,0.23651123,4.21875,-9.765625,1.65625
1664986686298,0.15161133,-1.1143188,0.29901123,-7.65625,-22.078125,-3.21875
1664986686330,0.26416016,-1.1311646,0.17816162,-27.546875,-29.296875,-9.046875
1664986686375,0.3173828,-1.3345337,0.25946045,-16.890625,-18.8125,-0.390625
1664986686409,0.14404297,-1.2908325,0.14593506,11.21875,-10.71875,-11.34375
1664986686449,0.2355957,-0.8970337,0.04168701,16.796875,-1.828125,-11.390625
1664986686496,0.19116211,-0.94073486,0.074157715,5.578125,9.390625,0.28125
1664986686526,0.19360352,-0.95880127,0.1071167,0.484375,11.203125,2.328125
1664986686570,0.19604492,-0.85284424,0.08905029,6.890625,9.703125,2.234375
1664986686615,0.12524414,-0.8999634,0.086364746,8.15625,9.328125,0.515625
1664986686645,0.10498047,-0.866272,0.12298584,5.578125,11.265625,-1.25
1664986686691,0.10131836,-0.8196411,0.10028076,3.296875,8.90625,0.25
1664986686734,0.05908203,-0.8442993,0.11444092,3.015625,8.203125,0.28125
1664986686764,0.087646484,-0.8110962,0.13397217,4.296875,9.828125,-0.9375
1664986686810,0.1418457,-0.86798096,0.12298584,6.4375,7.71875,1.25
1664986686857,0.095703125,-0.8826294,0.11248779,5.984375,10.359375,0.4375
1664986686884,0.13110352,-0.92193604,0.1437378,8.390625,9.859375,-0.984375
1664986686929,0.12890625,-0.95025635,0.15130615,8.96875,7.625,-1.53125
1664986686964,0.17651367,-1.0215454,0.101501465,3.703125,5.09375,-0.203125
1664986687006,0.16601562,-1.0784302,0.22943115,-2.296875,-1.390625,0.59375
1664986687048,0.10986328,-1.256897,0.14764404,-2.890625,-7.265625,1.34375
1664986687083,0.19262695,-1.4849243,-0.01763916,8.875,-10.78125,5.734375
1664986687125,0.37280273,-1.0952759,-0.12677002,12.078125,-6.84375,8.25
1664986687168,0.31420898,-0.9505005,0.018737793,9.65625,2.21875,6.375
1664986687203,0.19360352,-0.93707275,0.019958496,-1.015625,-8.265625,0.109375
1664986687277,0.13769531,-0.8206177,-0.014709473,0.4375,-9.046875,-3.140625
1664986687291,0.15698242,-0.78375244,-0.04156494,-2.6875,-8.828125,-4.859375
1664986687324,0.22021484,-0.8057251,-0.041809082,1.546875,-7.5,0.296875
1664986687365,0.21386719,-0.84747314,0.117614746,-2.109375,-3.5,0.5
1664986687396,0.16186523,-0.8374634,0.18548584,-0.78125,1.140625,0.234375
1664986687444,0.15991211,-0.9002075,0.12200928,-1.5,-5.78125,2.65625
1664986687489,0.18676758,-0.864563,0.10809326,-0.671875,-5.765625,0.21875
1664986687515,0.19506836,-0.8648071,0.13665771,1.15625,-7.84375,-1.078125
1664986687559,0.17529297,-0.8921509,0.1749878,0.96875,-5.421875,1.359375
1664986687604,0.17285156,-0.8858032,0.1762085,4.25,0.9375,1.5625
1664986687634,0.15551758,-0.9429321,0.16375732,4.953125,4.265625,0.515625
1664986687682,0.14111328,-1.0591431,0.19036865,-0.4375,2.140625,-3.234375
1664986687724,0.13720703,-1.159729,0.24041748,-3.265625,3.0,-10.03125
1664986687757,0.23608398,-1.260315,0.1930542,-1.84375,5.28125,-3.859375
1664986687806,0.24414062,-1.361145,0.007507324,-14.9375,10.1875,1.015625
1664986687875,0.28979492,-1.1912231,0.04486084,-1.796875,15.6875,-9.015625
1664986687880,0.26904297,-1.0193481,-0.0012817383,0.46875,14.34375,-7.6875
1664986687920,0.2277832,-0.9710083,-0.009338379,0.703125,13.453125,-7.40625
1664986687949,0.23364258,-0.9002075,0.008972168,7.359375,6.984375,-2.0
1664986687995,0.1940918,-0.92559814,-0.022033691,6.265625,5.453125,0.078125
1664986688042,0.109375,-0.8115845,0.003112793,7.78125,-0.890625,-2.28125
1664986688071,0.061767578,-0.7305298,0.070007324,5.484375,0.515625,-2.03125
1664986688115,0.041259766,-0.7522583,0.093688965,3.21875,8.21875,1.34375
1664986688159,0.05810547,-0.7398071,0.082214355,-1.0625,6.671875,2.734375
1664986688190,0.13427734,-0.83843994,0.10003662,0.09375,7.515625,5.03125
1664986688234,0.09448242,-0.8735962,0.10418701,-0.109375,1.9375,2.828125
1664986688280,0.09375,-0.90704346,0.10882568,0.125,-1.984375,0.453125
1664986688314,0.06347656,-0.9829712,0.14349365,-0.34375,1.453125,0.421875
1664986688355,0.09887695,-1.0132446,0.16619873,-0.546875,-3.765625,-0.125
1664986688384,0.13232422,-1.0820923,0.09222412,4.765625,2.3125,-0.734375
1664986688430,0.08935547,-1.1499634,0.20916748,-3.5,-9.734375,2.171875
1664986688475,0.088378906,-1.3416138,0.1552124,-3.203125,-5.046875,6.25
1664986688505,0.19628906,-1.43927,0.023132324,4.0,2.5,1.4375
1664986688579,0.43481445,-1.0186157,0.009216309,8.140625,13.53125,0.640625
1664986688593,0.35498047,-0.8401489,-0.1038208,9.65625,1.75,3.515625
1664986688624,0.2199707,-0.9492798,-0.0115356445,-0.125,-11.171875,0.5
1664986688670,0.16113281,-0.8369751,0.05218506,2.96875,-11.859375,-5.0
1664986688715,0.17114258,-0.79888916,0.035827637,2.359375,-10.3125,-2.5625
1664986688747,0.2265625,-0.8220825,0.08026123,-3.375,-4.609375,0.28125
1664986688791,0.17773438,-0.8206177,0.09979248,1.40625,-2.078125,2.078125
1664986688835,0.14990234,-0.84991455,0.078552246,-1.1875,-7.6875,1.828125
1664986688866,0.16186523,-0.8687134,0.11907959,-2.78125,-4.25,-0.125
1664986688910,0.13842773,-0.913147,0.13201904,-4.359375,-2.5,-2.125
1664986688942,0.16748047,-0.90289307,0.15350342,-1.125,-2.421875,-4.4375
1664986688985,0.1340332,-0.88531494,0.13275146,-1.8125,-1.6875,-3.515625
1664986689030,0.123046875,-0.8994751,0.14276123,0.21875,1.734375,-2.5625
1664986689061,0.14550781,-1.0186157,0.17401123,2.328125,4.953125,-2.0625
1664986689107,0.1315918,-1.0457153,0.2670288,-3.28125,5.09375,-4.640625
1664986689151,0.08178711,-1.1533813,0.2489624,-6.359375,0.734375,-5.671875
1664986689179,0.22583008,-1.2471313,0.16156006,-8.921875,-2.0625,-2.21875
1664986689225,0.23828125,-1.3538208,0.0927124,-7.203125,-0.484375,-2.25
1664986689268,0.22192383,-1.0838013,0.081726074,14.234375,-1.75,-14.5625
1664986689299,0.21508789,-0.9434204,-0.0076293945,0.953125,1.375,-4.1875
1664986689344,0.1887207,-0.93707275,0.06121826,-1.375,9.234375,-0.046875
1664986689392,0.18457031,-0.8987427,0.018005371,-2.9375,3.484375,0.828125
1664986689420,0.12109375,-0.8731079,0.06756592,-3.359375,3.328125,0.78125
1664986689464,0.118896484,-0.8291626,0.09515381,4.609375,3.375,2.125
1664986689494,0.11254883,-0.8147583,0.09075928,3.15625,3.53125,2.078125
1664986689539,0.08911133,-0.79937744,0.11468506,6.171875,4.78125,1.6875
1664986689585,0.07104492,-0.8345337,0.13031006,6.171875,4.21875,1.609375
1664986689615,0.06958008,-0.895813,0.1239624,3.359375,3.125,1.28125
1664986689660,0.09423828,-0.8867798,0.12786865,2.890625,2.28125,0.953125
1664986689706,0.08227539,-0.90704346,0.17327881,1.59375,1.578125,1.625
1664986689735,0.08935547,-0.93756104,0.18304443,5.28125,4.25,2.453125
1664986689781,0.06347656,-1.036438,0.13348389,2.6875,1.609375,3.875
1664986689856,0.122802734,-1.1282349,0.17034912,-0.5625,-2.296875,1.734375
1664986689862,0.099365234,-1.24469,0.19622803,-6.40625,-3.6875,2.078125
1664986689899,0.12792969,-1.3262329,0.0680542,7.265625,-8.40625,4.90625
1664986689930,0.30419922,-1.1629028,0.06829834,-4.25,-12.53125,1.234375
1664986689975,0.34277344,-1.003479,0.11468506,0.859375,-5.8125,-0.171875
1664986690019,0.23852539,-0.8652954,0.001159668,5.171875,-8.640625,-1.453125
1664986690050,0.2487793,-0.8831177,0.06878662,0.59375,-1.4375,-1.46875
1664986690095,0.27514648,-0.81744385,0.08319092,1.96875,-1.90625,-0.734375
1664986690139,0.28295898,-0.87457275,0.14886475,-4.296875,-9.390625,-0.796875
1664986690174,0.18139648,-0.8545532,0.13494873,-1.90625,-9.359375,-2.34375
1664986690213,0.12768555,-0.7854614,0.1083374,5.59375,-3.078125,-2.09375
1664986690260,0.14379883,-0.8220825,0.12249756,6.140625,1.015625,1.640625
1664986690291,0.14550781,-0.82476807,0.14007568,2.046875,2.015625,0.359375
1664986690334,0.18237305,-0.8584595,0.18426514,4.171875,1.140625,1.640625
1664986690380,0.15844727,-0.9085083,0.17059326,0.859375,-1.03125,1.6875
1664986690414,0.17456055,-0.9092407,0.18914795,2.09375,0.390625,1.6875
1664986690455,0.1550293,-0.9649048,0.18963623,3.078125,2.296875,3.609375
1664986690485,0.16235352,-1.0122681,0.21307373,-1.21875,3.171875,0.859375
1664986690530,0.17553711,-1.0820923,0.29730225,-2.953125,8.140625,-2.359375
1664986690575,0.17602539,-1.2305298,0.2736206,-6.328125,4.140625,-4.640625
1664986690604,0.2602539,-1.2913208,0.09832764,-0.546875,2.15625,-0.234375
1664986690649,0.2788086,-1.161438,0.15374756,1.109375,3.71875,-3.734375
1664986690695,0.2055664,-1.0217896,0.016296387,4.9375,7.65625,-6.265625
1664986690724,0.20703125,-0.9578247,-0.009094238,-2.859375,12.375,-6.828125
1664986690771,0.21704102,-0.94610596,0.028747559,1.90625,15.75,-4.65625
1664986690815,0.18945312,-0.8960571,0.006286621,2.125,11.484375,-2.0
1664986690843,0.1706543,-0.9326782,0.055358887,2.25,11.21875,-1.09375
1664986690891,0.19262695,-0.8569946,0.094177246,3.71875,10.0,-0.140625
1664986690930,0.16772461,-0.82818604,0.11077881,3.8125,5.609375,1.484375
1664986690964,0.09423828,-0.7932739,0.08148193,4.703125,-0.40625,1.5625
1664986691011,0.064453125,-0.75860596,0.121032715,5.3125,-3.0,1.09375
1664986691044,0.052978516,-0.83428955,0.1251831,4.59375,-4.25,2.5
1664986691116,0.068359375,-0.8701782,0.12982178,6.734375,0.828125,1.046875
1664986691134,0.10205078,-0.897522,0.13446045,0.03125,-6.34375,-0.53125
1664986691167,0.10498047,-0.9331665,0.14007568,-3.421875,-9.234375,-2.171875
1664986691204,0.10546875,-0.98443604,0.19256592,5.859375,-2.46875,0.578125
1664986691252,0.09350586,-1.0479126,0.22381592,-2.234375,-6.15625,-0.875
1664986691278,0.12182617,-1.1321411,0.16912842,0.09375,-4.09375,3.140625
1664986691323,0.19458008,-1.4141235,0.08416748,5.765625,-1.609375,7.359375
1664986691403,0.34399414,-1.2908325,0.014343262,5.96875,2.234375,3.671875
1664986691407,0.3642578,-1.0237427,-0.05206299,7.75,-1.484375,1.75
1664986691444,0.28686523,-0.97369385,-0.018371582,4.5,-6.078125,-0.25
1664986691474,0.24731445,-0.960022,-0.008850098,0.765625,-3.015625,1.4375
1664986691522,0.28076172,-0.82818604,0.059509277,1.71875,-7.734375,-1.1875
1664986691565,0.20751953,-0.8386841,0.05316162,-8.671875,-14.390625,-1.53125
1664986691595,0.19262695,-0.8555298,0.10736084,-7.140625,-11.8125,-0.40625
1664986691647,0.1694336,-0.829895,0.13812256,-2.921875,-8.234375,-2.0
1664986691685,0.15771484,-0.78912354,0.11883545,0.421875,-5.359375,-0.578125
1664986691719,0.14233398,-0.8088989,0.1437378,1.375,-1.984375,2.453125
1664986691760,0.16430664,-0.84210205,0.15228271,-0.265625,-0.78125,1.96875
1664986691803,0.16796875,-0.8557739,0.1671753,0.359375,-3.3125,1.234375
1664986691834,0.18408203,-0.85235596,0.17767334,0.140625,-2.203125,2.078125
1664986691882,0.16137695,-0.88482666,0.22235107,1.796875,-0.734375,2.546875
1664986691912,0.14038086,-0.9343872,0.22235107,1.703125,-2.21875,1.78125
1664986691954,0.12036133,-0.9885864,0.24066162,0.546875,-0.625,-2.890625
1664986692002,0.0769043,-1.0247192,0.2789917,-7.609375,-1.734375,-12.53125
1664986692028,0.18774414,-1.2454224,0.21331787,3.171875,-1.578125,-13.84375
1664986692076,0.33203125,-1.5200806,0.20794678,-8.265625,1.5625,2.265625
1664986692121,0.36108398,-1.2041626,0.1239624,10.578125,-1.640625,-11.921875
1664986692151,0.25097656,-1.0427856,0.018249512,9.0,-5.421875,-6.546875
1664986692195,0.22705078,-1.0193481,0.027038574,-1.46875,7.046875,-4.234375
1664986692243,0.24121094,-0.94122314,0.010925293,0.765625,1.796875,-1.90625
1664986692271,0.2084961,-0.82598877,0.039733887,2.90625,-1.390625,-1.1875
1664986692314,0.12475586,-0.8440552,0.046325684,5.078125,3.3125,1.125
1664986692390,0.12646484,-0.8262329,0.07366943,7.140625,3.296875,2.640625
1664986692395,0.11791992,-0.8357544,0.097351074,3.671875,0.171875,2.3125
1664986692434,0.07055664,-0.84503174,0.12054443,1.765625,-0.484375,0.484375
1664986692465,0.07836914,-0.80303955,0.12835693,4.390625,-0.015625,0.546875
1664986692510,0.07885742,-0.85113525,0.13079834,2.21875,2.203125,-0.515625
1664986692556,0.10986328,-0.85162354,0.16888428,0.625,-3.296875,-1.28125
1664986692584,0.087402344,-0.9277954,0.20379639,-2.15625,-6.21875,-2.71875
1664986692633,0.10180664,-1.0359497,0.15570068,2.1875,-3.546875,-1.5
1664986692674,0.16064453,-1.0440063,0.19403076,-0.03125,-2.671875,-1.96875
1664986692704,0.060302734,-1.144104,0.2086792,1.59375,-4.90625,-2.875
1664986692753,0.05834961,-1.1782837,0.18841553,-0.1875,-4.90625,-1.546875
1664986692798,0.15600586,-1.2315063,0.13128662,1.109375,9.296875,3.46875
1664986692828,0.3203125,-1.2310181,0.14031982,-2.359375,4.875,6.125
1664986692870,0.26538086,-1.0640259,0.0026245117,10.234375,8.09375,1.296875
1664986692899,0.2241211,-0.90216064,-0.008850098,8.8125,5.34375,-0.28125
1664986692945,0.20458984,-0.90045166,0.016052246,6.25,3.5,1.296875
1664986692992,0.22216797,-0.86309814,-0.0064086914,2.921875,2.453125,0.734375
1664986693021,0.24853516,-0.79473877,0.09197998,2.28125,-0.171875,0.0625
1664986693064,0.18530273,-0.82354736,0.0848999,1.515625,-7.078125,0.03125
1664986693110,0.13793945,-0.81207275,0.097839355,0.390625,-7.125,-0.875
1664986693141,0.123535156,-0.81695557,0.13812256,0.25,-2.921875,-0.515625
1664986693186,0.13842773,-0.84039307,0.124938965,0.453125,-1.109375,0.515625
1664986693230,0.16796875,-0.84869385,0.15716553,-0.296875,-1.484375,1.09375
1664986693262,0.1538086,-0.90093994,0.13275146,-0.71875,-5.578125,0.8125
1664986693307,0.123535156,-0.8843384,0.21575928,-7.59375,-12.359375,-1.421875
