# Sensor type: Respeck
# Activity type: Descending stairs
# Activity code: 13
# Subject id: s1918275
# Notes: 
timestamp,accel_x,accel_y,accel_z,gyro_x,gyro_y,gyro_z
1664629105815,0.22851562,-0.9163208,-0.20391846,0.953125,-2.203125,0.296875
1664629105875,0.23852539,-0.7769165,-0.086242676,9.0,-4.21875,6.796875
1664629105906,0.13696289,-1.0110474,-0.010803223,-3.671875,-3.109375,3.296875
1664629105936,0.07885742,-1.2288208,-0.035461426,-2.421875,-1.21875,-0.21875
1664629106013,0.123535156,-1.0818481,-0.073791504,2.40625,3.015625,6.25
1664629106019,0.17822266,-0.9470825,0.022155762,-0.421875,4.53125,6.609375
1664629106087,0.060058594,-0.98883057,0.051452637,-3.109375,7.703125,4.5
1664629106103,0.0769043,-0.90704346,0.017028809,0.015625,13.859375,6.4375
1664629106134,0.1665039,-0.8599243,-0.009338379,1.578125,2.390625,10.078125
1664629106177,0.109375,-0.87042236,0.051696777,-6.609375,6.859375,6.890625
1664629106220,0.13598633,-0.8406372,0.010437012,-1.953125,16.15625,-5.015625
1664629106250,0.25048828,-0.8526001,-0.003479004,9.328125,12.109375,-3.8125
1664629106298,0.14746094,-0.9819946,-0.18048096,-5.71875,10.625,7.34375
1664629106355,0.35961914,-1.3511353,-0.2576294,12.203125,16.8125,6.8125
1664629106370,0.10595703,-0.9258423,-0.08331299,10.96875,18.765625,8.03125
1664629106447,-0.091796875,-0.8081665,-0.20587158,-5.875,24.703125,0.21875
1664629106453,0.4802246,-1.2612915,-0.25030518,5.78125,11.734375,-0.296875
1664629106523,0.21972656,-1.0794067,-0.09210205,12.921875,-4.65625,6.6875
1664629106538,-0.056884766,-0.7463989,-0.07159424,7.125,0.640625,0.046875
1664629106567,0.063964844,-0.7151489,-0.14019775,3.890625,6.296875,-5.65625
1664629106628,0.09399414,-0.722229,-0.101135254,0.90625,4.671875,-1.234375
1664629106656,0.1394043,-0.6626587,-0.062072754,3.59375,-6.03125,-7.28125
1664629106686,0.12426758,-0.53131104,-0.043518066,-9.421875,-17.703125,-4.234375
1664629106762,-0.15283203,-0.631897,-0.01739502,-10.5,-17.453125,-7.390625
1664629106767,-0.00390625,-0.8308716,-0.18658447,-9.1875,-14.078125,6.875
1664629106837,-0.13110352,-1.1240845,-0.03765869,-13.90625,-9.65625,6.15625
1664629106853,0.40600586,-0.84942627,-0.42608643,8.859375,-8.140625,-3.984375
1664629106880,0.40820312,-1.4563599,-0.17462158,-6.984375,-0.578125,-0.28125
1664629106927,1.017334,-1.9570923,-0.059143066,-12.734375,-12.71875,-11.625
1664629106988,-0.45239258,-1.3338013,-0.07305908,13.765625,-14.203125,-0.25
1664629107004,0.18286133,-1.1465454,-0.08380127,9.359375,16.5625,-5.203125
1664629107047,0.8171387,-1.0083618,0.0014038086,1.796875,-10.140625,-0.15625
1664629107106,-0.17651367,-0.93048096,0.090026855,5.625,-14.53125,5.90625
1664629107122,-0.038085938,-0.47833252,-0.06939697,8.21875,0.859375,-4.28125
1664629107165,0.23071289,-0.5256958,0.13128662,-8.296875,9.15625,-1.421875
1664629107200,-0.20263672,-0.59088135,0.11956787,-17.859375,20.28125,-6.125
1664629107240,0.24731445,-0.49884033,0.07293701,-17.296875,37.0,-7.34375
1664629107288,0.3725586,-0.96051025,-0.07989502,-14.640625,22.484375,-13.578125
1664629107317,0.008544922,-1.1602173,0.07293701,3.609375,-3.59375,-4.5625
1664629107363,0.35229492,-0.86724854,-0.19488525,6.703125,1.6875,1.296875
1664629107436,-0.011230469,-1.315979,-0.34527588,8.0625,15.09375,8.734375
1664629107441,0.3527832,-1.3433228,-0.37506104,14.15625,10.5,22.765625
1664629107510,0.16040039,-2.0,-0.12750244,-5.921875,-10.203125,9.90625
1664629107515,0.1381836,-1.3638306,-0.1116333,17.84375,-2.28125,5.4375
1664629107585,0.029296875,-0.7817993,-0.08917236,9.859375,3.953125,3.25
1664629107600,-0.09448242,-0.7876587,-0.10015869,6.703125,7.703125,-0.015625
1664629107635,0.3215332,-0.6851196,-0.16290283,12.578125,-2.828125,4.1875
1664629107706,0.14990234,-0.36968994,-0.1404419,10.359375,-23.9375,5.34375
1664629107720,-0.1899414,-0.47003174,-0.0044555664,1.734375,-12.90625,2.640625
1664629107754,0.0073242188,-0.70928955,-0.030334473,-9.90625,-5.109375,-4.5
1664629107812,0.041503906,-1.0064087,-0.11895752,-19.015625,0.09375,0.140625
1664629107826,-0.1743164,-1.18927,0.07098389,-8.4375,1.484375,-7.59375
1664629107872,0.099609375,-0.88116455,-0.21392822,-2.875,4.859375,2.734375
1664629107917,0.6994629,-0.9277954,-0.45977783,17.640625,13.46875,8.390625
1664629107948,1.0854492,-1.9658813,-0.105285645,-15.21875,-26.65625,22.25
1664629107992,-0.045410156,-1.4273071,-0.093566895,15.890625,-35.578125,4.28125
1664629108064,-0.43798828,-0.9585571,-0.09307861,28.59375,5.734375,-5.03125
1664629108068,0.5629883,-0.9072876,-0.089904785,10.765625,-0.265625,4.609375
1664629108141,0.3618164,-0.9612427,0.15008545,5.234375,-0.6875,4.9375
1664629108156,-0.2758789,-0.5252075,0.04852295,-6.34375,0.234375,0.890625
1664629108186,0.16503906,-0.1729126,0.02142334,-1.390625,31.109375,4.625
1664629108245,0.13793945,-0.47735596,-0.03375244,-3.3125,28.359375,-15.59375
1664629108261,0.15771484,-0.7168579,-0.21539307,11.734375,6.1875,-15.484375
1664629108320,0.6269531,-1.0523071,0.043151855,-10.84375,-5.65625,0.421875
1664629108351,-0.033447266,-1.4890747,-0.23443604,2.625,-9.3125,-4.484375
1664629108383,0.17114258,-1.4126587,-0.548645,26.0625,18.109375,0.90625
1664629108425,0.79907227,-1.831604,-0.22320557,-0.671875,-5.53125,6.359375
1664629108472,-0.1628418,-1.4575806,-0.29693604,-7.359375,-11.21875,7.453125
1664629108506,0.27001953,-1.138977,-0.24078369,12.859375,10.921875,-1.328125
1664629108548,0.22924805,-0.99664307,-0.19805908,2.109375,-0.046875,6.953125
1664629108577,-0.026611328,-0.6956177,-0.18487549,0.234375,-3.28125,-1.125
1664629108622,0.05419922,-0.5396118,-0.19415283,-4.65625,2.734375,-4.84375
1664629108683,0.11669922,-0.5952759,-0.13604736,-8.9375,1.203125,-4.375
1664629108697,0.19335938,-0.45977783,-0.10626221,3.15625,-13.140625,-1.671875
1664629108759,0.017578125,-0.22784424,-0.12384033,-8.109375,-21.078125,1.90625
1664629108785,-0.2055664,-0.4680786,-0.012268066,-8.65625,-0.625,-6.6875
1664629108816,-0.234375,-1.1426392,0.051696777,-15.15625,23.3125,-6.484375
1664629108892,0.02368164,-1.4553833,-0.4524536,5.546875,32.40625,4.9375
1664629108906,0.95825195,-0.95269775,-0.5081177,8.421875,6.734375,-3.265625
1664629108938,0.68310547,-1.55719,-0.23370361,-5.828125,-17.546875,-1.171875
1664629109013,-0.3239746,-1.9407349,-0.047180176,0.84375,3.375,11.765625
1664629109017,0.46362305,-1.180481,-0.3279419,18.890625,7.65625,-0.640625
1664629109087,0.1772461,-1.0645142,-0.02960205,15.28125,2.34375,4.75
1664629109107,-0.061523438,-0.675354,-0.070373535,8.84375,7.8125,11.671875
1664629109135,0.23168945,-0.3665161,-0.016662598,4.921875,9.9375,16.890625
1664629109176,-0.06958008,-0.3303833,0.0692749,-7.890625,14.765625,1.5625
1664629109241,-0.08178711,-0.5120239,-0.06060791,-24.84375,20.171875,-16.421875
1664629109258,0.11694336,-0.72369385,-0.19195557,0.875,36.171875,-16.375
1664629109314,0.7141113,-1.0230103,-0.17803955,1.203125,16.234375,-3.90625
1664629109327,0.0949707,-1.223938,-0.44073486,0.015625,-14.515625,6.65625
1664629109388,0.25805664,-1.6477661,-0.5393677,15.546875,11.515625,-2.46875
1664629109417,0.31933594,-1.7800903,-0.48687744,-1.484375,-12.984375,2.265625
1664629109446,-0.0056152344,-1.3340454,-0.028625488,-1.5625,-5.484375,2.484375
1664629109522,-0.123291016,-1.130188,-0.18804932,-7.578125,2.09375,-8.28125
1664629109537,-0.035888672,-0.9151001,-0.21466064,9.3125,24.671875,-14.109375
1664629109565,0.25854492,-0.64630127,-0.18634033,6.8125,5.890625,2.96875
1664629109640,0.026611328,-0.442688,-0.20391846,-0.40625,-8.65625,1.875
1664629109657,0.107421875,-0.41778564,-0.20904541,-1.859375,-6.15625,3.25
1664629109686,0.049316406,-0.49468994,-0.05279541,3.609375,-16.671875,1.875
1664629109734,-0.083740234,-0.7307739,-0.050598145,-14.671875,-16.671875,-3.921875
1664629109764,-0.30541992,-1.0562134,-0.13140869,-4.0,-15.875,-12.734375
1664629109808,-0.16894531,-0.9714966,-0.19122314,-13.984375,-0.34375,-3.578125
1664629109866,-0.07495117,-1.28302,-0.2468872,-10.796875,12.578125,-10.796875
1664629109884,1.0776367,-1.2947388,-0.52056885,14.8125,7.71875,-9.859375
1664629109941,0.53564453,-1.7473755,-0.2131958,-19.078125,-37.515625,16.828125
1664629109971,-0.5341797,-1.4006958,0.066589355,11.921875,-10.703125,1.296875
1664629110000,0.41088867,-1.0830688,-0.16558838,4.359375,26.703125,-4.25
1664629110046,0.7282715,-0.98321533,-0.13702393,8.578125,-20.078125,12.65625
1664629110077,-0.2993164,-0.80426025,0.047546387,10.0,-26.09375,6.515625
1664629110122,-0.1850586,-0.550354,-0.011291504,8.546875,8.765625,-0.4375
1664629110165,0.20776367,-0.4553833,0.085876465,-1.328125,21.78125,4.125
1664629110199,-0.0056152344,-0.42755127,-0.06109619,-24.84375,9.71875,0.875
1664629110274,-0.033691406,-0.70562744,-0.016662598,-20.09375,27.125,-3.203125
1664629110289,0.7807617,-1.1638794,-0.044006348,-13.9375,11.65625,-5.390625
1664629110316,0.2133789,-1.3250122,-0.26275635,8.015625,-19.21875,4.015625
1664629110392,-0.26708984,-1.0574341,-0.2630005,6.703125,-4.609375,1.65625
1664629110407,0.42285156,-1.0606079,-0.22589111,4.421875,19.421875,7.359375
1664629110436,0.1862793,-1.8396606,-0.2695923,-21.625,-11.890625,0.375
1664629110498,0.3071289,-1.5010376,-0.17437744,16.890625,-3.703125,-0.6875
1664629110513,0.29418945,-0.65460205,0.034118652,9.234375,-22.109375,2.59375
1664629110577,-0.3256836,-0.40655518,-0.07989502,-5.328125,-22.890625,-2.734375
1664629110615,0.025634766,-0.92071533,-0.11627197,2.78125,-5.53125,-11.296875
1664629110634,0.26000977,-0.7437134,-0.07183838,-1.9375,-18.21875,9.015625
1664629110677,-0.3317871,-0.70635986,0.046325684,-4.671875,-13.25,-4.1875
1664629110723,0.030761719,-0.645813,-0.09967041,-2.9375,-7.046875,-10.125
1664629110752,-0.016113281,-0.7268677,-0.06451416,-15.5625,-0.59375,6.546875
1664629110795,-0.09008789,-1.185852,-0.1362915,-7.234375,20.828125,-12.890625
1664629110825,0.67700195,-1.0066528,-0.21343994,-4.765625,21.4375,5.5625
1664629110869,0.6081543,-1.7427368,0.053649902,-19.546875,-1.390625,19.46875
1664629110915,0.13500977,-1.6060181,-0.117248535,18.515625,-16.890625,-9.203125
1664629110946,0.12084961,-0.82354736,0.07293701,14.28125,-13.46875,11.9375
1664629110991,0.017089844,-0.8147583,0.04486084,4.40625,6.21875,9.421875
1664629111066,-0.0041503906,-0.7114868,0.11077881,1.40625,12.765625,-0.1875
1664629111071,0.106933594,-0.6448364,0.1852417,-6.6875,22.0,-0.890625
1664629111143,0.043701172,-0.51153564,-0.11383057,-12.90625,34.0,-3.78125
1664629111149,0.2368164,-0.6465454,0.04071045,11.734375,31.6875,-16.59375
1664629111217,0.5229492,-1.0159302,-0.24786377,0.71875,4.0625,7.984375
1664629111233,0.08178711,-1.6792603,-0.4505005,22.71875,0.703125,5.15625
1664629111261,0.30932617,-1.3435669,-0.13677979,13.71875,0.328125,19.40625
1664629111305,-0.29663086,-1.569397,-0.13140869,-36.640625,6.859375,5.0625
1664629111350,0.5739746,-1.6521606,-0.2781372,13.921875,20.828125,-7.828125
1664629111400,0.2824707,-0.97857666,-0.008850098,10.5,-17.34375,9.828125
1664629111424,-0.24780273,-0.45880127,-0.03717041,8.65625,-4.296875,-2.28125
1664629111499,0.13867188,-0.4199829,-0.06427002,5.140625,-8.578125,-5.9375
1664629111502,-0.012207031,-0.3303833,-0.11651611,-1.421875,-25.984375,8.328125
1664629111574,0.0012207031,-0.4163208,-0.097229004,5.53125,-1.828125,0.734375
1664629111577,-0.023925781,-0.73443604,-0.0032348633,-13.921875,-7.703125,-9.53125
1664629111651,0.025390625,-0.7312622,-0.1375122,-7.90625,-10.15625,-3.5625
1664629111664,0.17016602,-0.9776001,-0.2786255,1.25,8.875,-3.625
1664629111694,0.9111328,-1.7559204,-0.18560791,6.140625,1.515625,10.609375
1664629111755,0.2199707,-1.7234497,-0.051818848,-6.015625,-10.0625,3.234375
1664629111785,-0.25952148,-1.1091919,-0.15386963,13.75,8.9375,9.03125
1664629111814,0.27685547,-1.2105103,0.059265137,6.03125,29.4375,-4.328125
1664629111890,0.5305176,-0.7925415,-0.0020141602,-1.90625,6.640625,7.28125
1664629111894,0.0075683594,-0.6699829,0.18450928,-19.609375,-2.703125,23.484375
1664629111965,-0.5358887,-0.47906494,0.051452637,-15.28125,33.84375,-27.4375
1664629111980,0.5107422,-0.5383911,-0.09185791,-11.046875,43.21875,-29.078125
1664629112009,0.46606445,-0.8233032,-0.2366333,5.28125,23.609375,-2.6875
1664629112058,-0.033447266,-1.4622192,-0.33892822,-13.125,14.84375,7.640625
1664629112118,0.37353516,-1.4714966,-0.47174072,6.65625,23.328125,3.96875
1664629112135,0.14135742,-1.375061,0.010681152,0.515625,4.421875,13.28125
1664629112191,-0.095214844,-1.2529907,0.038269043,-5.125,12.453125,10.953125
1664629112224,-0.19213867,-0.85040283,-0.11846924,0.953125,23.0625,1.1875
1664629112251,0.23950195,-0.83135986,-0.08062744,0.578125,22.984375,2.359375
1664629112314,0.15039062,-0.6174927,-0.10308838,-3.25,-0.359375,9.09375
1664629112328,-0.2590332,-0.74420166,0.0067749023,-10.140625,7.984375,10.734375
1664629112387,0.07910156,-0.83477783,0.1552124,-14.328125,11.15625,11.34375
1664629112418,-0.51538086,-1.1489868,-0.05328369,-27.859375,22.671875,6.90625
1664629112448,0.071777344,-1.1516724,0.008972168,-24.546875,64.328125,-0.890625
1664629112532,-0.2084961,-1.8323364,0.026794434,-49.21875,73.234375,6.03125
1664629112540,0.36743164,-1.0418091,-0.5562134,-19.734375,77.734375,-2.90625
1664629112566,0.8786621,-0.8284302,-0.059387207,4.875,47.84375,0.21875
1664629112611,0.011962891,-1.0747681,-0.19464111,2.34375,42.40625,15.984375
1664629112642,-0.020751953,-1.1487427,-0.2234497,-4.875,63.265625,-1.546875
1664629112689,0.49609375,-1.3284302,-0.22027588,-16.1875,69.5625,0.28125
1664629112745,0.038330078,-1.3320923,-0.144104,-13.078125,59.359375,12.3125
1664629112762,-0.13208008,-0.8765259,-0.17071533,-8.859375,75.203125,6.484375
1664629112838,0.3774414,-0.7871704,-0.1729126,-13.84375,76.953125,5.5
1664629112854,0.16235352,-0.79937744,-0.09112549,-9.890625,58.234375,11.28125
1664629112887,0.14428711,-0.8286743,-0.04522705,-5.453125,49.984375,13.5625
1664629112948,-0.0625,-0.81744385,0.013366699,-14.875,39.6875,10.546875
1664629112972,-0.10449219,-0.9343872,-0.09698486,-12.75,41.984375,1.65625
1664629113001,0.2019043,-0.861145,-0.032043457,-4.796875,54.90625,4.84375
1664629113046,0.3737793,-0.9678345,0.10394287,-13.984375,39.640625,8.96875
1664629113078,0.080322266,-1.2388306,0.0692749,-14.375,30.234375,3.21875
1664629113133,0.06323242,-1.1399536,0.0914917,-7.484375,31.46875,-7.40625
1664629113197,0.18774414,-1.1941528,-0.1260376,-6.734375,31.765625,-6.921875
1664629113201,0.14648438,-1.1760864,-0.49493408,-4.84375,46.265625,4.984375
1664629113272,0.24609375,-0.87628174,-0.5706177,3.21875,53.296875,18.0
1664629113285,0.45336914,-0.9854126,-0.3965454,-4.65625,41.1875,23.0625
1664629113316,0.18823242,-1.1558228,-0.15924072,-9.90625,42.15625,5.671875
1664629113377,0.0041503906,-1.0127563,-0.2835083,-11.96875,56.953125,5.765625
1664629113393,0.2355957,-0.88726807,-0.34136963,-7.625,51.0,6.609375
1664629113454,0.28442383,-0.75494385,-0.21685791,-4.09375,38.546875,10.578125
1664629113481,0.28173828,-0.65582275,-0.128479,-3.8125,30.0,12.71875
1664629113511,0.234375,-0.5606079,-0.06915283,-11.328125,22.078125,11.578125
1664629113556,-0.24169922,-0.6411743,-0.16827393,2.578125,38.265625,5.0625
1664629113604,0.028320312,-1.0730591,-0.411438,1.171875,34.03125,-8.828125
1664629113631,0.5769043,-1.361145,-0.109191895,-26.84375,21.078125,4.34375
1664629113677,0.15820312,-1.3899536,-0.17901611,-43.328125,13.21875,7.0
1664629113725,-0.1538086,-1.2158813,-0.39019775,-23.40625,20.546875,-12.3125
1664629113751,0.7375488,-0.79571533,-0.17462158,-6.65625,26.421875,1.28125
1664629113798,0.36132812,-0.58062744,-0.11993408,3.46875,8.015625,-1.5
1664629113827,-0.06542969,-0.90509033,-0.19317627,0.640625,20.09375,0.421875
1664629113873,0.48266602,-1.1834106,-0.17315674,-4.78125,12.40625,-1.015625
1664629113946,0.39941406,-1.154602,-0.13653564,0.0625,8.765625,8.28125
1664629113951,0.1694336,-0.9492798,-0.09991455,3.4375,4.1875,1.890625
1664629114021,0.31152344,-0.8501587,-0.08502197,3.5625,3.21875,1.921875
1664629114035,0.1652832,-0.927063,-0.10845947,-0.296875,0.734375,6.78125
1664629114065,0.037841797,-0.8933716,-0.04107666,-4.203125,12.796875,0.78125
1664629114146,0.045654297,-0.6309204,0.022155762,-2.71875,22.21875,-6.3125
1664629114153,-0.024169922,-0.4841919,-0.029846191,-6.765625,31.984375,-5.984375
1664629114203,0.027832031,-0.3574829,-0.05670166,-1.546875,30.875,-3.609375
1664629114233,0.18041992,-0.4631958,-0.06060791,-14.0625,25.328125,-2.609375
1664629114260,0.033935547,-0.92071533,0.019226074,-16.96875,23.359375,-14.5
1664629114306,0.15136719,-1.2190552,-0.105529785,-12.109375,24.4375,-17.40625
1664629114351,0.47338867,-1.348938,-0.12408447,-5.734375,16.296875,-8.5625
1664629114382,0.24975586,-1.3745728,-0.56451416,13.671875,37.734375,9.921875
1664629114441,0.37036133,-1.2312622,-0.30230713,-21.1875,19.796875,26.046875
1664629114455,0.50268555,-1.9268188,-0.06085205,-7.109375,17.140625,-5.765625
1664629114520,0.43896484,-1.0906372,-0.040100098,5.140625,-3.09375,-1.0625
1664629114546,-0.1550293,-0.56744385,0.032165527,6.5,-3.171875,-3.0
1664629114576,-0.032226562,-0.81622314,-0.19805908,7.046875,10.796875,-21.078125
1664629114653,0.4194336,-0.90216064,-0.12164307,10.46875,1.046875,1.671875
1664629114666,0.1730957,-0.49468994,-0.016418457,15.734375,-11.78125,-3.703125
1664629114696,-0.19433594,-0.56817627,-0.13360596,-2.28125,-14.15625,-0.03125
1664629114771,-0.010009766,-0.73760986,-0.06744385,-1.6875,-3.828125,-5.96875
1664629114786,0.31030273,-0.83843994,-0.07940674,-2.703125,-20.78125,-6.5
1664629114819,-0.16625977,-0.96710205,-0.12310791,-12.90625,-18.953125,3.515625
1664629114862,-0.32861328,-0.9824829,-0.2131958,-14.515625,3.265625,-12.65625
1664629114890,0.95581055,-0.9927368,-0.24737549,9.5625,15.359375,0.859375
1664629114937,0.9277344,-1.8938599,-0.16778564,-14.15625,-9.4375,12.28125
1664629114996,-0.32861328,-1.7507935,0.08880615,8.40625,-8.453125,11.21875
1664629115013,0.09375,-1.0291138,-0.05718994,16.1875,13.6875,-0.609375
1664629115070,0.5678711,-0.9968872,-0.02520752,-2.828125,3.171875,10.25
1664629115100,0.15942383,-0.99176025,0.035827637,6.84375,-7.515625,-0.09375
1664629115136,0.014160156,-0.63067627,-0.046691895,11.1875,1.265625,4.015625
1664629115190,0.15625,-0.3706665,0.03704834,5.546875,12.28125,4.703125
1664629115207,0.107421875,-0.39996338,0.0060424805,2.078125,11.921875,2.515625
1664629115265,0.10522461,-0.6116333,0.11907959,-17.328125,15.703125,-3.90625
1664629115298,0.1015625,-0.8796997,0.034118652,-10.25,4.640625,-24.625
1664629115328,0.36914062,-0.95147705,0.009460449,4.5625,-5.53125,-11.140625
1664629115401,0.18603516,-0.6658325,0.081726074,0.296875,-12.109375,4.09375
1664629115416,0.296875,-1.5366821,0.036315918,-15.671875,-9.171875,-12.65625
1664629115446,0.5488281,-1.8135376,-0.71954346,31.421875,4.984375,10.90625
1664629115522,-0.09375,-1.1780396,6.713867E-4,-2.40625,-9.171875,21.8125
1664629115535,0.025878906,-1.6936646,0.0758667,-15.234375,13.921875,-5.90625
1664629115567,0.38891602,-1.413147,-0.44561768,13.125,13.984375,1.84375
1664629115625,0.32617188,-0.8206177,-0.15533447,10.546875,-4.578125,10.65625
1664629115643,-0.057861328,-0.53082275,-0.015930176,11.90625,-10.9375,-4.53125
1664629115702,-0.07885742,-0.46417236,-0.043518066,9.671875,0.703125,-0.9375
1664629115752,0.08203125,-0.45758057,0.06317139,0.78125,2.15625,3.640625
1664629115770,0.0026855469,-0.53692627,-0.13970947,-6.8125,-9.40625,-0.6875
1664629115807,0.06933594,-0.72198486,-0.09136963,-2.84375,-2.453125,-2.421875
1664629115850,-0.035888672,-0.8843384,0.013122559,-14.46875,-4.03125,5.765625
1664629115883,-0.20947266,-0.7427368,-0.18048096,-9.171875,21.578125,1.296875
1664629115926,0.9152832,-1.1062622,-0.4644165,14.53125,19.515625,-6.578125
1664629115960,0.99121094,-2.0,-0.3032837,-11.515625,-24.25,19.8125
1664629116000,-0.32104492,-1.5803833,-0.1026001,8.265625,-16.765625,-6.390625
1664629116047,0.15625,-1.3403931,-0.11187744,12.5625,22.28125,-5.453125
1664629116077,0.73461914,-1.3272095,-0.011047363,6.921875,-7.40625,1.890625
1664629116125,0.009277344,-0.86920166,0.06854248,9.515625,-16.296875,-5.0625
1664629116198,-0.27172852,-0.380188,-0.055236816,11.265625,9.75,-4.953125
1664629116211,0.14624023,-0.3164673,0.06976318,5.125,31.1875,-3.765625
1664629116271,0.17382812,-0.35235596,-0.08282471,-4.1875,18.03125,-0.5625
1664629116285,0.011962891,-0.2962036,-0.20977783,8.53125,13.03125,-4.5
1664629116316,0.24316406,-0.77056885,0.012145996,5.09375,21.84375,-7.53125
1664629116361,0.4284668,-1.117981,-0.08892822,12.171875,0.0625,1.65625
1664629116391,0.22460938,-1.2305298,-0.33380127,14.3125,-6.234375,10.6875
1664629116439,0.44873047,-1.4470825,-0.55841064,17.515625,-10.390625,1.5625
1664629116484,-0.23242188,-1.9558716,-0.51226807,-8.125,-12.96875,6.28125
1664629116511,0.2421875,-1.6477661,-0.13897705,-5.375,18.34375,3.6875
1664629116556,0.11743164,-1.3621216,-0.26715088,-4.578125,11.4375,4.703125
1664629116607,-0.05493164,-1.0337524,-0.15045166,-0.84375,18.59375,-3.671875
1664629116630,0.017822266,-0.65167236,-0.11187744,4.75,12.390625,1.4375
1664629116706,0.23339844,-0.33770752,-0.23101807,8.015625,9.03125,-3.4375
1664629116710,0.21484375,-0.47906494,-0.22857666,0.703125,-13.859375,6.96875
1664629116781,0.10595703,-0.505188,-0.13458252,5.140625,-20.125,6.5
1664629116804,-0.06958008,-0.6026001,-0.0791626,6.84375,-14.875,3.234375
1664629116826,-0.14038086,-0.7241821,-0.035217285,-11.671875,-10.28125,-8.984375
1664629116903,-0.040771484,-0.78131104,-0.14654541,-10.78125,-3.90625,-7.25
1664629116917,0.20410156,-1.0027466,-0.30230713,-8.28125,9.140625,-4.375
1664629116946,0.861084,-1.3242798,-0.44781494,3.984375,-6.296875,1.265625
1664629117023,0.80859375,-2.0,0.086364746,-30.53125,-20.6875,4.8125
1664629117036,-0.84716797,-1.3616333,-0.3242798,17.578125,-5.828125,-4.6875
1664629117067,0.8342285,-1.3977661,-0.08111572,-4.125,14.71875,-11.125
1664629117112,0.64941406,-1.4275513,0.105895996,13.25,-17.40625,-2.140625
1664629117140,-0.4543457,-0.51934814,-0.11431885,8.703125,-27.515625,-0.140625
1664629117188,0.1105957,-0.0947876,-0.07208252,10.0,12.34375,-6.6875
1664629117246,0.23583984,-0.46905518,0.04901123,-0.546875,8.109375,4.90625
1664629117260,-0.27392578,-0.48150635,0.039245605,-6.078125,11.234375,2.734375
1664629117320,0.17749023,-0.5269165,-0.15460205,-10.0,31.53125,-6.609375
1664629117352,0.26831055,-0.7034302,-0.054504395,-5.515625,19.296875,-7.0625
1664629117380,0.43017578,-1.1138306,-0.005432129,1.296875,7.046875,-0.46875
1664629117442,0.16455078,-1.1467896,-0.380188,6.25,-9.1875,2.390625
1664629117454,-0.08105469,-1.4133911,-0.46759033,-0.34375,17.84375,-2.203125
1664629117516,0.5756836,-1.421936,-0.59747314,-4.890625,3.96875,11.40625
1664629117547,0.4050293,-1.7644653,-0.18829346,18.03125,-23.25,13.875
1664629117577,-0.015625,-1.2671509,-0.09698486,-3.875,-35.234375,4.765625
1664629117651,-0.37890625,-1.1096802,0.005065918,-3.15625,14.5625,-12.109375
1664629117667,0.122558594,-1.081604,-0.17315674,6.8125,16.828125,-8.015625
1664629117695,0.24511719,-0.6240845,-0.13409424,4.96875,-4.09375,4.921875
1664629117770,-0.05493164,-0.473938,-0.17242432,-0.34375,-5.765625,-0.140625
1664629117777,0.020996094,-0.7913208,-0.057922363,-6.234375,-3.09375,-0.90625
1664629117815,0.06225586,-0.8225708,-0.06915283,-9.671875,-4.390625,1.265625
1664629117875,-0.05029297,-0.5532837,0.04437256,-5.5625,-10.421875,-4.96875
1664629117890,-0.104003906,-0.6375122,-0.008850098,-17.515625,-5.75,3.46875
1664629117970,-0.17749023,-0.9636841,-0.10699463,-14.59375,17.203125,-14.171875
1664629117986,0.40722656,-0.89923096,-0.24298096,0.546875,5.078125,-14.5625
1664629118011,0.10058594,-1.0881958,-0.13043213,-9.265625,3.265625,3.78125
1664629118070,0.24316406,-1.4573364,-0.24957275,5.453125,10.875,-12.375
1664629118145,0.90185547,-1.7886353,-0.11578369,-2.9375,-18.484375,9.328125
1664629118155,-0.23388672,-1.3728638,-0.06451416,4.65625,-33.609375,5.46875
1664629118175,-0.021240234,-1.1536255,-0.11773682,14.578125,1.46875,-0.03125
1664629118206,0.5822754,-1.2105103,-0.016174316,9.25,-12.75,-3.625
1664629118253,-0.01953125,-0.89263916,-0.008605957,9.0625,-27.328125,6.515625
1664629118296,-0.10546875,-0.45611572,0.0016479492,8.796875,-6.71875,0.671875
1664629118326,0.17382812,-0.4102173,0.08074951,-0.9375,7.640625,1.59375
1664629118402,0.03149414,-0.45562744,0.06072998,-10.484375,6.65625,-2.75
1664629118417,-0.019042969,-0.58551025,-0.101135254,-10.125,13.46875,-9.859375
1664629118447,0.19262695,-0.8897095,-0.038391113,-3.609375,11.1875,-14.265625
1664629118539,0.4128418,-1.0645142,-0.038391113,-1.0,-7.296875,3.125
1664629118545,-0.07128906,-1.024231,-0.19854736,11.28125,-15.703125,6.5
1664629118569,-0.05834961,-1.4465942,-0.38043213,10.765625,11.734375,-5.578125
1664629118625,0.63061523,-1.5847778,-0.39190674,4.0625,1.671875,15.171875
1664629118643,-0.029785156,-1.5669556,-0.1026001,-8.375,-14.484375,17.40625
1664629118690,0.007080078,-1.4038696,-0.18145752,4.53125,4.296875,-0.03125
1664629118733,0.20629883,-1.0737915,-0.089904785,11.375,7.28125,-3.515625
1664629118763,-0.005126953,-0.5960083,-0.1428833,14.59375,-1.515625,-0.328125
1664629118807,0.00390625,-0.56036377,-0.15216064,7.34375,1.828125,0.8125
1664629118851,0.1550293,-0.5418091,-0.034973145,6.28125,-7.0,4.03125
1664629118881,-0.044677734,-0.47442627,-0.19683838,-3.1875,-14.234375,4.265625
1664629118926,0.075683594,-0.79351807,-0.16680908,1.71875,-18.359375,-6.765625
1664629118956,0.31225586,-0.7866821,-0.117492676,6.625,-26.125,1.125
1664629119001,-0.56225586,-0.6956177,-0.0020141602,-8.984375,-24.015625,3.65625
1664629119077,0.35717773,-0.60406494,-0.6929321,6.421875,1.5625,-5.515625
1664629119084,0.60253906,-1.2932739,0.19989014,0.21875,-6.1875,14.078125
1664629119151,0.14868164,-2.0,-0.18511963,-23.984375,3.09375,-7.171875
1664629119165,0.56591797,-1.4187622,-0.1482544,6.0625,-16.046875,14.765625
1664629119197,0.008300781,-1.5154419,-0.03741455,-1.828125,2.90625,-4.5625
1664629119271,0.6452637,-1.3181763,-0.09844971,5.25,-15.96875,-2.734375
1664629119276,0.18261719,-0.81500244,0.04046631,8.6875,-20.203125,4.234375
1664629119335,-0.1772461,-0.5401001,0.0016479492,12.28125,-8.859375,-0.09375
1664629119361,0.07006836,-0.52789307,0.03265381,1.9375,10.375,0.78125
1664629119390,0.06689453,-0.48345947,0.11956787,-6.75,17.09375,-1.1875
1664629119435,0.009521484,-0.4331665,-0.065979004,-11.78125,21.671875,-10.171875
1664629119484,0.23657227,-0.5935669,0.034362793,-9.703125,27.625,-10.015625
1664629119511,0.3046875,-0.89385986,-0.081848145,-3.75,9.09375,-7.90625
1664629119555,0.35180664,-0.9920044,0.01727295,6.875,-2.5,3.953125
1664629119615,-0.05444336,-1.1626587,-0.24029541,0.46875,-0.125,1.3125
1664629119631,0.4128418,-1.472229,-0.27960205,12.28125,13.359375,-1.359375
1664629119692,0.38623047,-1.3897095,-0.25445557,-9.3125,-8.515625,24.546875
1664629119705,-0.25146484,-1.5115356,-0.13287354,6.75,13.5625,0.046875
1664629119766,0.37280273,-1.4981079,-0.17340088,-12.234375,19.0625,7.953125
1664629119799,-0.036865234,-1.1980591,-0.043273926,-2.890625,24.78125,-4.96875
1664629119825,0.027832031,-1.0078735,-0.25079346,2.671875,34.0625,-12.125
1664629119902,0.34179688,-0.6782837,-0.19171143,6.40625,16.3125,13.5
1664629119920,0.03100586,-0.55426025,-0.11968994,1.859375,9.3125,0.4375
1664629119945,-0.16455078,-0.68585205,-0.105285645,0.234375,15.171875,1.0
1664629120024,0.10961914,-0.60406494,-0.13189697,1.6875,21.90625,-0.484375
1664629120032,0.23876953,-0.5881958,-0.17047119,-5.703125,5.171875,5.453125
1664629120066,-0.17993164,-0.77593994,0.018737793,-13.953125,7.6875,4.46875
1664629120114,-0.22241211,-0.97906494,0.05340576,-33.859375,28.78125,1.109375
1664629120142,-0.08251953,-0.90167236,-0.028869629,-16.109375,32.078125,-13.265625
1664629120202,0.13183594,-0.8220825,-0.17901611,-20.859375,28.0625,5.15625
1664629120231,0.23632812,-1.0801392,-0.17999268,-18.9375,32.46875,-4.5
1664629120262,0.66625977,-1.288147,-0.07525635,-5.625,11.765625,0.671875
1664629120320,0.15917969,-2.0,-0.06011963,-38.5,-13.953125,2.234375
1664629120352,-0.048339844,-1.4649048,0.043151855,9.078125,17.5625,-6.703125
1664629120381,0.083740234,-1.1030884,-0.08404541,-5.421875,24.375,1.03125
1664629120425,0.26538086,-1.0308228,0.051208496,2.390625,20.21875,7.234375
1664629120455,0.03857422,-0.7295532,0.026794434,6.015625,22.671875,9.390625
1664629120532,0.04321289,-0.50860596,-0.039123535,8.109375,31.59375,8.015625
1664629120546,0.107910156,-0.49346924,0.0289917,3.921875,37.34375,9.71875
1664629120577,-0.052978516,-0.4680786,-0.033996582,4.328125,36.859375,9.578125
1664629120651,0.088134766,-0.553772,-0.05206299,8.296875,50.734375,2.984375
1664629120727,0.3166504,-0.8128052,-0.023010254,-3.40625,41.078125,6.65625
1664629120733,0.35742188,-1.0466919,0.0033569336,2.71875,23.671875,2.046875
1664629120746,0.111816406,-1.2537231,-0.070617676,4.796875,11.015625,8.8125
1664629120774,0.10913086,-1.2341919,-0.35357666,2.53125,33.296875,-0.1875
1664629120830,0.6599121,-1.4317017,-0.5396118,11.328125,22.1875,27.03125
1664629120862,-0.037841797,-1.8408813,-0.24151611,-0.296875,-7.515625,8.765625
1664629120892,-9.765625E-4,-1.3154907,-0.19342041,3.0625,28.75,8.65625
1664629120950,-0.18579102,-0.98028564,-0.18463135,4.15625,46.28125,2.34375
1664629120981,-0.040283203,-0.80133057,-0.3106079,-1.28125,47.609375,-2.8125
1664629121010,0.1586914,-0.7307739,-0.1921997,-2.0625,34.703125,13.9375
1664629121055,-0.13012695,-0.5952759,-0.2210083,-5.609375,36.421875,12.0625
1664629121085,-0.16381836,-0.631897,-0.23590088,-11.4375,45.75,9.375
1664629121133,-0.10913086,-0.86798096,-0.24224854,-18.59375,50.828125,12.9375
1664629121175,-0.05810547,-1.1565552,-0.17144775,-18.265625,54.953125,12.296875
1664629121207,0.10424805,-1.1985474,-0.20953369,-29.15625,52.953125,13.9375
1664629121281,0.06591797,-1.3765259,-0.074279785,-15.6875,49.453125,8.015625
1664629121295,-0.018066406,-1.4509888,-0.13482666,-23.9375,29.625,8.96875
1664629121328,-0.15136719,-1.0171509,-0.23321533,-19.1875,36.6875,6.421875
1664629121403,0.0107421875,-0.6453247,-0.5108032,-11.75,44.796875,-5.28125
1664629121417,0.38330078,-0.800354,-0.39678955,-4.328125,69.875,0.78125
1664629121449,0.31811523,-1.0239868,-0.3706665,-15.96875,62.203125,2.625
1664629121506,0.076416016,-1.2229614,-0.4192505,-19.625,66.78125,11.9375
1664629121522,0.118896484,-1.1397095,-0.15997314,-14.890625,74.109375,13.578125
1664629121567,0.24804688,-0.90997314,-0.10284424,-14.546875,70.734375,15.8125
1664629121612,-0.052734375,-0.85528564,-0.29083252,-25.0625,73.578125,27.921875
1664629121640,0.16381836,-0.9495239,-0.26715088,-12.875,83.890625,25.5
1664629121688,0.31567383,-0.8154907,-0.1453247,-15.875,74.28125,33.28125
1664629121733,0.11694336,-0.73931885,0.023132324,-15.375,70.953125,34.0
1664629121765,-0.25195312,-0.8069458,-0.06378174,-30.65625,74.984375,32.3125
1664629121836,0.18530273,-0.8735962,-0.2312622,-19.9375,81.75,10.234375
1664629121842,0.7397461,-0.96173096,-0.11553955,-23.96875,56.53125,16.65625
1664629121883,0.33789062,-1.0733032,-0.058898926,-4.96875,33.796875,13.90625
1664629121940,0.08203125,-1.0542603,-0.113342285,-8.28125,32.359375,1.984375
1664629121956,-0.05419922,-0.80670166,-0.40582275,1.15625,48.6875,-4.484375
1664629122031,0.38378906,-0.925354,-0.6409302,-8.75,57.484375,11.65625
1664629122048,0.79052734,-1.7051392,-0.32183838,-11.25,11.96875,12.359375
1664629122075,0.28515625,-0.9963989,-0.19122314,0.1875,8.859375,-8.875
1664629122152,-0.056884766,-0.7493286,-0.13018799,-1.734375,26.953125,-4.046875
1664629122167,0.14697266,-0.6670532,-0.21173096,1.234375,17.171875,-6.984375
1664629122199,0.24560547,-0.5671997,-0.28619385,-4.84375,2.265625,-7.921875
1664629122240,0.21655273,-0.7966919,-0.24908447,-1.40625,0.4375,-11.484375
1664629122270,0.2277832,-0.86846924,-0.2144165,-0.265625,-7.609375,-8.515625
1664629122316,0.056884766,-0.769104,-0.13409424,-0.34375,-4.40625,-3.90625
1664629122361,0.09790039,-0.611145,-0.08306885,-6.484375,-11.03125,-10.203125
1664629122391,-0.072265625,-0.833313,-0.12872314,-20.078125,-6.140625,-5.421875
1664629122436,0.008544922,-0.8723755,-0.057434082,-16.078125,-0.828125,-13.09375
1664629122498,-0.060546875,-0.9067993,0.02532959,-24.8125,3.3125,-2.40625
1664629122511,0.05517578,-0.70758057,-0.045715332,-18.921875,0.640625,-17.734375
1664629122571,0.13720703,-0.62286377,-0.13360596,-7.0,12.0625,-4.0
1664629122584,0.27783203,-1.0789185,-0.2312622,-6.171875,34.1875,0.09375
1664629122647,1.4187012,-2.0,-0.24932861,-39.3125,0.421875,1.171875
1664629122680,0.31811523,-1.1497192,-0.19122314,19.875,-20.890625,-2.875
1664629122706,-0.39892578,-1.2197876,-0.25421143,1.40625,-0.25,8.09375
1664629122782,0.888916,-1.2102661,-0.15533447,19.140625,-7.765625,1.40625
1664629122797,0.12402344,-1.0049438,-0.0010375977,9.328125,-19.890625,8.5625
1664629122829,-0.15283203,-0.65704346,-0.0713501,14.84375,-5.25,1.71875
1664629122905,0.25805664,-0.6865845,-0.029846191,9.8125,9.15625,-1.875
1664629122919,0.18383789,-0.7046509,-0.06842041,2.03125,2.59375,6.578125
1664629122946,0.09887695,-0.73028564,-0.05645752,2.3125,9.109375,5.921875
1664629122991,0.14770508,-0.61309814,0.029968262,-4.28125,12.109375,10.015625
1664629123022,-0.052734375,-0.5303345,0.0026245117,-2.984375,15.34375,-0.796875
1664629123097,0.22338867,-0.63775635,-0.015686035,-4.84375,17.046875,-5.359375
1664629123109,0.33642578,-0.895813,-0.024719238,-5.671875,5.890625,-13.34375
1664629123144,0.12890625,-0.91485596,-0.13336182,15.515625,3.78125,-13.6875
1664629123203,0.20043945,-0.8648071,0.0770874,-3.84375,4.109375,3.0625
1664629123232,0.15844727,-1.5593872,-0.055236816,-17.921875,-1.0625,-19.875
1664629123262,0.41381836,-1.3372192,-0.50567627,20.953125,18.109375,0.578125
1664629123308,0.7055664,-1.3660278,-0.2720337,4.421875,-16.921875,14.765625
1664629123338,-0.05834961,-1.3538208,0.039489746,10.5,-10.1875,6.75
1664629123414,-0.0024414062,-1.1333618,-0.38775635,5.59375,-0.96875,-7.765625
1664629123426,0.49536133,-1.09552,-0.1531372,10.84375,0.453125,2.015625
1664629123455,-0.017089844,-0.8101196,-0.16290283,12.984375,-13.5,4.578125
1664629123531,-0.017822266,-0.6782837,-0.18145752,10.453125,-0.59375,-5.203125
1664629123546,0.09692383,-0.880188,-0.1272583,1.390625,2.4375,0.21875
1664629123576,0.12426758,-0.8040161,-0.11871338,-0.8125,-5.0625,-0.765625
1664629123638,0.107421875,-0.59698486,-0.19927979,1.0625,-9.84375,2.296875
1664629123667,0.11230469,-0.63165283,-0.12237549,2.21875,-10.765625,4.5
1664629123696,0.111572266,-0.74102783,-0.057434082,-2.09375,-9.953125,-2.140625
1664629123756,-0.0871582,-0.92144775,-0.13140869,-12.046875,-3.828125,-3.546875
1664629123771,0.10131836,-1.0195923,-0.17437744,-11.40625,-1.640625,-6.328125
1664629123831,-0.14477539,-0.82818604,-0.12823486,-5.84375,-2.71875,-4.609375
1664629123865,0.16210938,-1.0806274,-0.3706665,-6.6875,12.484375,-8.203125
1664629123895,1.0234375,-1.3103638,-0.33843994,15.953125,-6.28125,-0.09375
1664629123935,0.6376953,-1.7832642,-0.13043213,-11.1875,-21.9375,15.796875
1664629123981,-0.36328125,-1.3789673,-0.120666504,13.8125,1.0,0.203125
1664629124011,0.31323242,-1.0508423,-0.21270752,12.375,10.046875,-2.484375
1664629124056,0.6101074,-0.9517212,-0.08477783,8.234375,-12.421875,4.296875
1664629124085,0.045410156,-0.9224243,-0.066711426,3.578125,-12.59375,4.1875
1664629124135,0.07446289,-0.6050415,-0.14727783,5.3125,-6.078125,-0.296875
1664629124208,0.26586914,-0.6104126,-0.023010254,1.734375,-0.90625,2.828125
1664629124214,0.012451172,-0.52423096,-0.0256958,-2.515625,8.859375,4.296875
1664629124284,0.011230469,-0.5352173,-0.005432129,5.796875,19.90625,-4.28125
1664629124300,0.14697266,-0.5393677,-0.1026001,4.46875,11.546875,-0.46875
1664629124334,0.45947266,-0.7341919,-0.035705566,-7.953125,11.59375,-3.453125
1664629124405,0.21166992,-1.1526489,-0.10235596,0.40625,-7.703125,-8.65625
1664629124413,0.1743164,-0.9656372,-0.28424072,4.5625,13.078125,-0.65625
1664629124477,0.16113281,-1.2676392,-0.5615845,-4.296875,11.5625,-0.296875
1664629124490,0.53686523,-1.4934692,-0.6709595,-6.125,3.8125,5.390625
1664629124520,0.25463867,-1.6350708,-0.14752197,-4.453125,-7.140625,12.359375
1664629124566,-0.07324219,-1.4829712,-0.12994385,-20.34375,11.34375,8.125
1664629124616,0.057373047,-1.0161743,-0.14630127,-9.609375,21.90625,-11.21875
1664629124640,0.3161621,-0.7776489,-0.14093018,-3.375,9.09375,-2.078125
1664629124688,0.12573242,-0.5022583,-0.14849854,0.734375,-4.921875,1.875
1664629124762,-0.020263672,-0.5269165,-0.17022705,-3.984375,-4.046875,-9.015625
1664629124770,0.24414062,-0.65289307,-0.08453369,0.984375,-9.96875,-1.546875
1664629124822,0.06567383,-0.47906494,-0.13970947,-1.328125,-23.0,1.421875
1664629124836,-0.06518555,-0.6223755,-0.050354004,-9.828125,-17.84375,0.921875
1664629124910,-0.10449219,-0.9522095,0.019958496,-20.6875,-1.046875,0.21875
1664629124925,0.0053710938,-0.925354,-0.16656494,-10.328125,-2.15625,-4.328125
1664629124956,0.59350586,-1.2263794,-0.047424316,-7.265625,17.171875,12.359375
1664629125033,0.32861328,-1.6812134,-0.39801025,-12.390625,8.5,-11.609375
1664629125047,0.6179199,-1.6414185,0.03265381,-0.390625,-8.109375,6.96875
1664629125077,0.19262695,-1.5254517,-0.035949707,1.53125,-8.0,2.15625
1664629125120,0.28564453,-1.2300415,4.272461E-4,4.40625,-17.9375,-2.734375
1664629125153,0.2109375,-0.88848877,0.029724121,11.921875,-15.421875,-1.84375
1664629125227,0.048095703,-0.6226196,-0.0134887695,14.4375,-9.234375,1.453125
1664629125246,0.12060547,-0.53131104,-0.018371582,10.03125,2.0,3.390625
1664629125271,0.20678711,-0.66851807,0.0680542,-1.171875,2.65625,1.890625
1664629125316,-0.015136719,-0.6716919,0.059020996,-7.921875,12.1875,-4.65625
1664629125378,0.11621094,-0.39874268,-0.050354004,2.984375,19.640625,-11.703125
1664629125394,0.22875977,-0.5977173,-0.015930176,-1.328125,15.46875,-6.78125
1664629125451,0.19384766,-0.8521118,0.036071777,-5.46875,2.9375,-10.4375
1664629125529,0.12426758,-0.9404907,0.14910889,-4.59375,-3.4375,-8.71875
1664629125533,-0.0715332,-0.9649048,-0.08843994,0.25,15.59375,-9.984375
1664629125558,0.55029297,-1.3814087,-0.29986572,10.515625,29.421875,-2.90625
1664629125586,0.48168945,-2.0,-0.8262329,2.296875,-24.4375,19.796875
1664629125663,-0.052978516,-1.4382935,0.13494873,21.96875,-46.1875,17.28125
1664629125680,0.08496094,-1.2305298,0.02142334,-3.71875,-21.171875,0.09375
1664629125711,-0.15161133,-1.3352661,-0.17193604,10.90625,10.171875,-20.09375
1664629125782,0.25756836,-1.0037231,-0.16900635,12.078125,-9.484375,5.203125
1664629125796,0.080078125,-0.5147095,-0.113098145,11.34375,-18.046875,-2.828125
1664629125827,-0.09277344,-0.52911377,-0.17486572,12.171875,-6.640625,-10.765625
1664629125870,0.13916016,-0.65411377,-0.11773682,8.0,-7.390625,7.484375
1664629125902,0.123291016,-0.55010986,-0.093322754,7.90625,-12.125,4.109375
1664629125962,-0.15893555,-0.72735596,-0.1675415,-12.90625,-7.609375,1.359375
1664629125993,0.032470703,-0.91363525,-0.008605957,3.828125,-5.609375,-9.15625
1664629126020,-0.10522461,-0.9067993,-0.09429932,-20.9375,-11.296875,1.859375
1664629126080,0.041748047,-0.90826416,-0.21026611,-2.984375,6.578125,-1.984375
1664629126109,0.5432129,-0.9595337,-0.32330322,9.125,-2.734375,-0.25
1664629126140,0.28686523,-1.5027466,-0.28912354,-8.296875,3.171875,11.125
1664629126204,0.7138672,-1.7713013,-0.2756958,-5.421875,2.953125,13.09375
1664629126231,-0.13256836,-1.2769165,-0.04937744,19.59375,2.765625,3.890625
1664629126261,0.15478516,-1.3484497,-0.085754395,-3.625,15.015625,3.359375
1664629126337,0.65234375,-0.9956665,0.0045776367,9.03125,-17.21875,5.0625
1664629126343,-0.071777344,-0.89263916,-0.047912598,7.46875,-11.203125,5.015625
1664629126410,-0.004638672,-0.58380127,-0.08331299,7.578125,8.46875,0.078125
1664629126426,0.27661133,-0.6433716,-0.041809082,2.21875,9.34375,3.1875
1664629126457,0.052246094,-0.6248169,0.018493652,-1.328125,6.25,5.71875
1664629126518,-0.05126953,-0.59942627,0.001159668,-3.78125,17.359375,-4.609375
1664629126547,0.15795898,-0.6213989,-0.0413208,-3.109375,17.921875,-10.890625
1664629126577,0.31713867,-0.7036743,-0.20513916,-6.25,0.40625,-1.546875
1664629126639,0.41455078,-1.0664673,0.093444824,3.46875,-2.609375,-3.5
1664629126652,-0.0949707,-0.85943604,-0.14141846,-0.59375,-6.4375,-6.265625
1664629126712,0.14868164,-1.1848755,-0.11138916,-9.75,9.8125,-10.53125
1664629126743,0.40405273,-1.5845337,-0.40948486,-10.109375,18.03125,-6.515625
1664629126771,0.48339844,-1.4851685,-0.40338135,-5.34375,-17.265625,17.71875
1664629126815,-0.21435547,-1.3850708,0.08099365,-9.34375,-15.09375,-0.125
1664629126862,0.04345703,-1.2420044,-0.27618408,3.34375,15.625,-11.25
1664629126894,0.38427734,-1.0217896,-0.19976807,5.90625,7.46875,8.078125
1664629126965,-0.021728516,-0.9031372,-0.12384033,9.0625,3.296875,3.140625
1664629126979,0.053710938,-0.74224854,-0.13531494,5.265625,6.703125,-2.1875
1664629127010,0.12451172,-0.5237427,-0.12750244,8.140625,0.890625,3.21875
1664629127070,0.05078125,-0.4331665,-0.09576416,3.046875,-1.671875,2.859375
1664629127086,0.033691406,-0.42193604,-0.116760254,2.90625,-3.765625,-1.890625
1664629127165,0.060302734,-0.67022705,-0.09674072,-19.71875,0.8125,3.21875
1664629127177,-0.2109375,-1.2630005,0.05682373,-27.65625,-3.453125,-6.921875
1664629127206,-0.29785156,-1.265686,0.066589355,-24.46875,19.359375,-10.796875
1664629127266,0.17114258,-0.8591919,-0.1921997,-4.453125,11.0,-22.296875
1664629127307,0.6843262,-0.95513916,-0.44976807,10.609375,15.09375,-7.53125
1664629127325,0.43188477,-1.6487427,-0.16046143,0.578125,-6.1875,20.5
1664629127370,0.13330078,-1.8494263,0.012390137,-7.203125,-5.9375,2.171875
1664629127401,-0.24975586,-1.2119751,-0.0095825195,11.625,11.828125,-3.546875
1664629127445,0.3112793,-0.9685669,-0.08111572,3.75,19.15625,1.859375
1664629127494,0.4724121,-0.84942627,-0.08770752,6.90625,0.65625,0.59375
1664629127525,0.036865234,-0.72784424,-0.015197754,2.046875,-10.515625,6.578125
1664629127566,0.15356445,-0.62506104,-0.034240723,6.203125,-0.140625,4.515625
1664629127626,0.2055664,-0.5237427,0.06414795,2.15625,-2.484375,4.78125
1664629127643,-0.091552734,-0.45587158,-0.09527588,4.875,-1.546875,-0.59375
1664629127701,0.38476562,-0.6748657,-0.04864502,0.828125,4.03125,-3.734375
1664629127715,0.40307617,-0.9631958,-0.05206299,9.609375,-15.515625,-1.5625
1664629127790,-0.091552734,-0.66192627,-0.11651611,11.140625,-15.921875,12.65625
1664629127806,0.061523438,-0.9338989,0.14471436,-1.140625,-7.703125,-3.078125
1664629127836,-0.006591797,-1.4285278,-0.3587036,-1.078125,-2.140625,-23.15625
1664629127882,0.6845703,-1.2383423,-0.35821533,1.953125,3.75,27.1875
1664629127928,0.15893555,-2.0,-0.5317993,-16.84375,-25.46875,5.171875
1664629127956,0.020507812,-1.4609985,0.16668701,7.65625,-4.5625,7.015625
1664629128033,-0.13549805,-1.2791138,-0.069885254,-16.515625,10.65625,1.203125
1664629128046,0.07080078,-1.2417603,-0.12628174,4.28125,27.46875,-21.53125
1664629128075,0.39208984,-0.72735596,-0.020812988,6.34375,-5.296875,8.828125
1664629128150,0.12597656,-0.19122314,-0.14239502,11.15625,-17.703125,-4.21875
1664629128154,-0.12207031,-0.49468994,-0.14312744,-0.046875,-15.0,-1.546875
1664629128227,0.059326172,-0.84942627,-0.018371582,2.84375,-5.234375,1.71875
1664629128240,0.07128906,-0.67852783,-0.035217285,-0.1875,-15.265625,4.390625
1664629128273,-0.30444336,-0.675354,-0.045959473,-8.015625,2.53125,6.578125
1664629128347,0.087890625,-0.89678955,-0.019836426,-8.875,15.25,-2.53125
1664629128362,0.068847656,-1.1013794,0.082214355,-16.515625,16.046875,9.09375
1664629128392,-0.1418457,-1.2234497,-0.19390869,-9.6875,28.96875,-17.265625
1664629128466,0.7832031,-0.960022,-0.50494385,10.703125,9.453125,-1.109375
1664629128471,0.4885254,-1.5779419,0.0038452148,-14.1875,3.828125,8.515625
1664629128514,0.0715332,-1.7617798,-0.074523926,3.078125,-4.015625,-2.09375
1664629128556,0.09082031,-1.2073364,-0.15167236,2.484375,12.46875,0.859375
1664629128586,0.38916016,-1.1646118,-0.01373291,-4.34375,2.515625,-1.53125
1664629128662,0.15966797,-0.989563,-0.0064086914,2.9375,-4.84375,1.9375
1664629128675,-0.0703125,-0.46636963,-0.07281494,10.046875,8.4375,0.8125
1664629128706,0.20166016,-0.46173096,0.03363037,4.140625,18.09375,4.078125
1664629128766,0.018798828,-0.6069946,0.016296387,-4.53125,13.734375,2.53125
1664629128842,0.22802734,-0.72003174,-0.09307861,0.53125,21.59375,-7.21875
1664629128847,0.25805664,-0.8584595,-0.046447754,16.796875,5.296875,-14.15625
1664629128870,0.32055664,-0.7605591,-0.006652832,11.90625,4.09375,4.125
1664629128901,-0.15454102,-0.84625244,0.04559326,-0.703125,3.171875,-6.015625
1664629128960,-0.1940918,-0.98516846,-0.027648926,2.265625,25.546875,-22.0
1664629128990,0.3190918,-1.1116333,-0.1453247,-20.875,20.328125,-1.4375
1664629129022,0.36523438,-1.3796997,-0.31304932,-7.796875,4.578125,0.5
1664629129066,0.11230469,-1.5862427,-0.5383911,0.75,-4.8125,16.8125
1664629129111,-0.040771484,-1.4033813,0.1486206,16.90625,14.03125,10.59375
1664629129142,-0.2553711,-1.2798462,0.02532959,-31.859375,10.1875,8.5625
1664629129188,-0.051757812,-1.0567017,-0.19708252,3.140625,38.28125,-11.296875
1664629129216,0.3251953,-0.79693604,-0.020568848,-8.484375,6.921875,20.359375
1664629129261,-0.15625,-0.5869751,0.053649902,-4.921875,5.34375,12.96875
1664629129321,-0.029052734,-0.5918579,-0.18560791,-13.0,11.4375,12.875
1664629129335,0.0056152344,-0.9102173,0.109558105,-6.671875,26.28125,33.9375
1664629129398,-0.0075683594,-0.73638916,-0.14190674,-8.203125,14.421875,19.28125
1664629129427,-0.17773438,-0.9273071,-0.061340332,-17.171875,18.6875,22.5625
1664629129455,-0.029052734,-0.91485596,0.16497803,-20.53125,64.140625,27.25
1664629129539,-0.11694336,-1.2837524,-0.13287354,-38.96875,85.46875,14.5625
1664629129548,0.73535156,-1.0120239,-0.54351807,-1.53125,76.078125,8.703125
1664629129575,1.1694336,-1.1633911,0.074401855,6.546875,40.609375,12.6875
1664629129621,-0.3154297,-1.5137329,-0.49542236,2.84375,36.8125,15.359375
1664629129651,0.48388672,-1.3777466,-0.2432251,5.046875,63.953125,1.875
1664629129697,0.6567383,-1.3386841,-0.11114502,-6.0,46.4375,9.40625
1664629129742,0.026611328,-0.96295166,-0.11065674,-8.15625,35.09375,17.96875
1664629129773,-0.13085938,-0.6223755,-0.26348877,-8.671875,57.109375,6.515625
1664629129823,0.2619629,-0.72735596,-0.17486572,-14.09375,65.203125,16.65625
1664629129879,0.2241211,-0.8635864,-0.10772705,-10.53125,60.234375,21.75
1664629129895,0.09741211,-0.7781372,-0.15948486,-19.421875,50.25,16.8125
1664629129951,0.3088379,-0.88653564,-0.1663208,-17.390625,53.984375,9.5
1664629129968,0.3642578,-1.0776978,-0.14385986,-15.84375,41.9375,8.875
1664629130028,0.17919922,-0.9417114,-0.20709229,-9.46875,37.609375,-0.546875
1664629130057,0.23168945,-1.0991821,-0.29693604,-16.375,41.78125,3.671875
1664629130086,0.21459961,-1.2869263,-0.44708252,3.25,53.78125,11.203125
1664629130148,0.24072266,-0.704895,-0.3189087,-19.265625,52.59375,12.359375
1664629130175,0.16430664,-0.8779907,-0.4998169,-28.765625,61.75,12.015625
1664629130205,0.43896484,-1.4939575,-0.43145752,-12.265625,57.875,2.96875
1664629130250,0.32177734,-0.98565674,-0.26885986,-11.6875,39.578125,17.359375
1664629130296,-0.23046875,-0.5952759,-0.2559204,-16.03125,57.28125,9.953125
1664629130328,0.16479492,-0.7756958,-0.3184204,-14.59375,69.84375,14.125
1664629130371,0.3930664,-0.7073364,-0.2859497,-15.3125,44.03125,20.671875
1664629130401,0.040039062,-0.77838135,-0.20904541,-23.09375,31.171875,15.9375
1664629130446,-0.11206055,-0.99346924,-0.18096924,-27.125,41.25,8.9375
1664629130506,0.14331055,-0.9273071,-0.21710205,-27.203125,51.328125,10.015625
1664629130522,0.19628906,-0.93096924,-0.3196411,-28.703125,34.734375,12.59375
1664629130584,0.234375,-1.1192017,-0.51226807,-28.71875,38.375,9.515625
1664629130614,0.69628906,-0.93096924,-0.42926025,9.0,34.953125,0.453125
1664629130642,0.44628906,-0.95025635,-0.28448486,-8.265625,29.546875,3.0625
1664629130689,-0.0078125,-1.1409302,-0.30523682,-9.28125,25.421875,-1.578125
1664629130717,0.37573242,-1.138977,-0.35943604,6.34375,35.140625,-5.046875
1664629130793,0.5786133,-0.7876587,-0.19195557,-13.078125,10.921875,19.09375
1664629130805,0.0036621094,-0.76885986,-0.112854004,2.015625,18.8125,6.484375
1664629130837,0.11352539,-0.7227173,-0.19805908,0.109375,17.015625,6.734375
1664629130882,0.24584961,-0.52227783,-0.17877197,0.1875,21.171875,11.921875
1664629130928,0.17895508,-0.57647705,-0.062072754,-10.578125,24.484375,11.515625
1664629130957,-0.02734375,-0.6201782,-0.036193848,-20.859375,29.265625,7.140625
1664629131002,0.091796875,-0.5852661,-0.16558838,-24.390625,32.625,-2.65625
1664629131031,0.39453125,-0.6812134,-0.043029785,-24.890625,28.09375,-5.703125
1664629131077,0.12670898,-0.82354736,-0.120910645,-14.140625,23.296875,-7.265625
1664629131139,0.3149414,-0.8965454,0.028503418,-14.75,19.265625,-5.25
1664629131151,0.37353516,-0.829895,-0.5108032,-2.703125,13.015625,-14.796875
1664629131210,0.50390625,-1.56427,-0.74053955,18.21875,28.390625,-3.0625
1664629131243,0.7495117,-2.0,-0.44439697,-2.453125,-22.328125,13.28125
1664629131272,0.033447266,-1.4275513,-0.058654785,-11.890625,-15.484375,1.578125
1664629131318,-0.2055664,-0.90338135,-0.2925415,13.296875,16.0,-20.234375
1664629131390,0.21948242,-0.7901001,-0.37457275,7.109375,8.953125,-1.015625
1664629131395,0.203125,-0.6001587,-0.15142822,3.734375,1.34375,0.875
1664629131436,0.05126953,-0.41070557,-0.16778564,-6.515625,-8.140625,-8.453125
1664629131467,0.037353516,-0.34381104,-0.1375122,-6.34375,-7.578125,4.453125
1664629131513,0.14428711,-0.47174072,-0.055725098,-5.296875,-14.484375,1.03125
1664629131558,-0.010498047,-0.5618286,-0.16412354,-10.671875,-11.65625,6.265625
1664629131586,-0.2927246,-0.690979,-0.15631104,-15.125,16.6875,-8.34375
1664629131633,0.4658203,-0.84381104,-0.54351807,5.5625,41.234375,-9.640625
1664629131692,1.6044922,-1.9331665,-0.07086182,-26.09375,-11.875,31.21875
1664629131707,-0.08227539,-1.9317017,-0.08868408,4.421875,7.84375,-0.390625
1664629131766,-0.13378906,-0.9336548,-0.427063,8.609375,9.296875,-5.21875
1664629131780,1.1081543,-1.5811157,0.13250732,-1.6875,-4.671875,-5.203125
1664629131841,-0.10913086,-0.85894775,-0.062316895,8.453125,-32.046875,2.171875
1664629131871,-0.15014648,-0.17315674,0.002380371,8.046875,4.453125,-4.15625
1664629131901,0.1171875,-0.39312744,0.04486084,-8.640625,14.609375,-13.046875
1664629131945,0.14453125,-0.40411377,-0.13189697,-3.875,7.375,-11.953125
1664629131990,0.1875,-0.4290161,-0.14215088,-4.40625,5.484375,-9.359375
1664629132022,0.31445312,-0.9338989,0.002380371,-1.15625,3.171875,-14.78125
1664629132096,0.32006836,-1.2393188,-0.14190674,1.515625,-11.734375,-10.890625
1664629132118,0.014404297,-1.2739868,-0.44488525,6.0,-0.796875,-2.59375
1664629132142,0.5854492,-1.4070435,-0.30230713,1.46875,-16.671875,9.921875
1664629132200,-0.21020508,-1.8967896,-0.3430786,-6.109375,-14.90625,-2.0625
1664629132215,0.15991211,-1.5108032,-0.06011963,-4.8125,2.53125,-6.875
1664629132281,0.07836914,-1.0205688,-0.11651611,-1.96875,7.109375,-5.046875
1664629132309,0.001953125,-0.7642212,-0.24884033,7.9375,8.140625,-6.328125
1664629132337,0.21655273,-0.5774536,-0.14703369,7.9375,-6.359375,7.21875
1664629132397,0.1237793,-0.40997314,-0.046936035,12.46875,-16.71875,-1.9375
1664629132429,-0.12084961,-0.4619751,-0.15386963,-9.953125,-20.484375,6.203125
1664629132454,-0.03100586,-0.81451416,-0.054016113,-8.21875,-9.25,-1.28125
1664629132502,-0.0026855469,-0.81622314,-0.041809082,-6.15625,-12.875,-3.09375
1664629132533,-0.14282227,-0.6487427,-0.0256958,-26.59375,-4.296875,7.578125
1664629132575,-0.12988281,-0.89434814,-0.050109863,-13.3125,26.203125,-3.25
1664629132621,0.5402832,-1.4216919,-0.3098755,-9.40625,44.28125,-9.421875
1664629132650,1.4213867,-1.9685669,-0.33843994,0.09375,-12.140625,23.6875
1664629132697,-0.3840332,-1.6380005,0.19036865,-4.265625,-21.71875,3.640625
1664629132757,0.23364258,-1.6885376,-0.14849854,3.78125,15.984375,-19.734375
1664629132775,0.79345703,-1.0891724,0.19671631,7.109375,-10.4375,0.46875
1664629132830,-0.23779297,-0.78204346,0.016540527,-0.859375,-24.8125,0.28125
1664629132863,-0.08618164,-0.41583252,0.05682373,11.703125,-0.828125,-6.578125
1664629132890,0.13745117,-0.3928833,0.09051514,2.21875,12.265625,-5.921875
1664629132949,-0.051757812,-0.34210205,0.08758545,-2.515625,11.0,-5.71875
1664629132965,0.16186523,-0.4673462,-0.0491333,-10.09375,27.484375,-12.96875
1664629133025,0.14868164,-0.8562622,-0.05206299,1.875,14.8125,-20.671875
1664629133056,0.11767578,-0.98638916,-0.06915283,9.859375,-1.546875,-7.71875
1664629133086,0.21801758,-0.84381104,0.06732178,11.03125,-5.046875,7.75
1664629133134,-0.021728516,-1.0899048,-0.12017822,14.28125,-4.046875,-0.8125
1664629133176,0.2980957,-1.3618774,-0.1687622,5.734375,-1.703125,9.0
1664629133207,0.37402344,-1.9248657,-0.22320557,-26.875,-25.921875,15.5625
1664629133255,0.042236328,-2.0,-0.014953613,22.484375,-14.90625,-6.3125
1664629133283,0.078125,-1.03302,-0.097717285,3.421875,-0.796875,6.53125
1664629133359,-0.15307617,-0.68292236,-0.0095825195,-2.234375,-0.796875,-7.703125
1664629133371,0.21313477,-0.80010986,-0.124572754,8.265625,-3.21875,4.25
1664629133406,0.25341797,-0.31085205,-0.08428955,9.390625,-31.765625,15.1875
1664629133461,-0.055908203,-0.18487549,-0.04083252,6.15625,-36.671875,6.796875
1664629133496,-0.14331055,-0.46392822,-0.07623291,-1.921875,-24.6875,3.09375
1664629133521,-0.040771484,-0.659729,-0.015197754,-0.859375,0.84375,-2.484375
1664629133565,-0.032226562,-0.4800415,-0.36676025,-7.75,2.546875,4.296875
1664629133597,0.30126953,-1.0813599,-0.23297119,-4.671875,31.625,3.03125
1664629133647,1.501709,-2.0,-0.08746338,-36.0,-7.171875,4.828125
1664629133685,-0.19873047,-1.3460083,-0.011779785,13.125,-10.953125,18.28125
1664629133719,0.049560547,-1.1970825,-0.13726807,9.703125,15.234375,-9.921875
1664629133765,0.7297363,-1.6629028,-0.12384033,-10.4375,-3.546875,0.40625
1664629133805,0.33642578,-0.78497314,0.15814209,6.078125,-32.21875,2.578125
1664629133837,-0.21972656,-0.536438,-0.031799316,-1.125,-20.828125,6.640625
1664629133883,-0.09692383,-0.4607544,0.08782959,5.578125,13.140625,-13.109375
1664629133941,0.16601562,-0.63848877,0.01361084,-1.671875,19.578125,-10.09375
1664629133955,0.08569336,-0.5811157,-0.08477783,5.59375,16.171875,-12.453125
1664629134015,0.41674805,-0.6531372,-0.026672363,6.875,9.5625,0.8125
1664629134034,0.25146484,-0.8862915,-0.022277832,-2.359375,-14.171875,6.0
1664629134091,-0.08666992,-0.91778564,0.11175537,13.875,-5.59375,-7.78125
1664629134123,-0.045166016,-0.8477173,-0.17803955,-1.875,7.84375,-8.46875
1664629134153,0.17285156,-1.4343872,-0.23883057,3.34375,18.9375,-11.921875
1664629134195,0.6179199,-1.4317017,-0.3015747,-3.890625,4.203125,15.1875
1664629134241,-0.2602539,-1.9390259,-0.32867432,-11.625,-0.84375,3.9375
1664629134275,0.41967773,-1.5559692,-0.011779785,3.140625,1.40625,-5.703125
1664629134316,-0.1262207,-0.8904419,0.055114746,-1.375,0.265625,-3.84375
1664629134348,-0.3095703,-0.75250244,-0.15899658,1.359375,23.625,-20.40625
1664629134392,0.3996582,-0.6824341,-0.23101807,0.671875,5.5,2.9375
1664629134437,0.08129883,-0.37506104,-0.06524658,8.46875,-1.921875,1.453125
1664629134467,-0.36010742,-0.5515747,-0.13238525,-0.15625,1.71875,3.5625
1664629134510,0.1171875,-0.7944946,-0.043518066,1.515625,16.0,4.3125
1664629134585,0.23095703,-0.7151489,0.058044434,-3.90625,-4.84375,8.484375
1664629134597,-0.3684082,-0.7398071,-0.036193848,-20.4375,-1.03125,3.546875
1664629134661,-0.014160156,-1.1477661,-0.013244629,-12.84375,19.859375,2.5
1664629134675,0.31225586,-1.4324341,-0.23809814,-8.953125,28.28125,2.828125
1664629134707,0.6125488,-1.1975708,-0.27374268,4.9375,8.765625,2.9375
1664629134751,0.35424805,-1.8257446,0.13885498,-15.0625,3.109375,9.765625
1664629134780,0.028076172,-1.5181274,-0.034729004,12.375,-2.046875,2.578125
1664629134825,0.2319336,-0.85162354,-0.077941895,4.96875,2.515625,12.234375
1664629134870,0.31347656,-0.94073486,0.025817871,1.90625,0.90625,9.359375
1664629134901,0.14331055,-0.8154907,0.09613037,10.171875,-7.46875,3.3125
1664629134946,0.055664062,-0.48614502,-0.02545166,15.78125,1.5,2.609375
1664629134990,0.010253906,-0.33135986,0.0048217773,9.75,10.34375,1.421875
1664629135020,0.15356445,-0.30474854,0.11004639,1.578125,15.203125,-0.1875
1664629135082,0.19995117,-0.6165161,-0.09820557,-22.578125,4.84375,-2.921875
1664629135096,0.22998047,-1.1008911,0.024841309,8.703125,1.703125,-16.78125
1664629135171,0.35424805,-0.93927,0.026794434,11.78125,-5.40625,3.6875
1664629135187,0.079833984,-1.1792603,-0.13848877,-6.84375,-20.96875,0.21875
1664629135220,0.40942383,-1.7398071,-0.51348877,16.265625,7.359375,-15.5625
1664629135280,0.040527344,-1.6294556,-0.19464111,-7.125,-15.03125,20.640625
1664629135314,0.001953125,-1.6782837,-0.046691895,1.203125,0.765625,-1.40625
1664629135335,0.30200195,-1.2434692,-0.24176025,9.296875,5.28125,3.5625
1664629135383,0.1394043,-0.8999634,-0.09942627,3.796875,5.828125,-0.09375
1664629135428,-0.14794922,-0.7046509,-0.08721924,1.890625,3.59375,-3.984375
1664629135458,0.12133789,-0.4570923,-0.16021729,9.140625,7.484375,-2.828125
1664629135503,0.14794922,-0.4890747,-0.070129395,-2.328125,-8.65625,11.046875
1664629135532,-0.0043945312,-0.54351807,0.0053100586,-2.21875,-16.984375,-1.296875
1664629135577,-0.1027832,-0.62994385,-0.1428833,-10.484375,-8.0625,-4.25
1664629135636,0.23510742,-0.8394165,-0.109436035,-5.8125,-7.171875,-0.703125
1664629135651,-0.049316406,-0.928772,-0.18121338,-4.15625,-19.125,6.203125
1664629135711,0.16625977,-1.112854,0.11590576,-10.734375,28.40625,-4.9375
1664629135741,1.0322266,-1.4365845,-0.20806885,6.75,6.25,6.875
1664629135773,0.2915039,-1.9609985,-0.18170166,-5.625,-30.484375,11.375
1664629135833,-0.114990234,-1.3963013,-0.04815674,1.09375,-15.921875,1.609375
1664629135845,0.5395508,-1.1472778,0.13861084,-1.484375,-7.046875,-9.734375
1664629135927,0.1081543,-0.9678345,-0.012268066,12.078125,-8.90625,0.375
1664629135937,0.119628906,-0.69610596,0.036315918,7.65625,-11.734375,1.453125
1664629135966,0.10107422,-0.631897,0.074157715,2.578125,-4.171875,-7.671875
1664629136010,0.095703125,-0.57940674,0.06903076,3.265625,8.046875,-10.984375
1664629136058,0.011474609,-0.5757446,1.8310547E-4,-0.890625,6.078125,-12.34375
1664629136085,0.18334961,-0.69366455,-0.0071411133,1.046875,4.359375,-9.375
1664629136132,0.28808594,-0.8623657,-0.047668457,3.484375,-4.734375,-4.765625
1664629136190,-0.0061035156,-0.88165283,0.078552246,11.640625,-5.59375,-5.890625
1664629136205,-0.11279297,-0.8027954,-0.046203613,-1.1875,9.71875,-6.375
1664629136266,0.22192383,-1.2405396,-0.19415283,-9.953125,12.25,-12.171875
1664629136282,0.53393555,-1.4370728,-0.3887329,0.65625,17.234375,9.90625
1664629136340,-0.068115234,-1.6350708,-0.33599854,-0.109375,-11.875,16.375
1664629136376,0.14208984,-1.5088501,0.02923584,3.78125,2.75,-0.25
1664629136402,-0.11791992,-1.1387329,-0.023742676,-2.03125,8.6875,2.328125
1664629136446,-0.030761719,-0.99542236,-0.16973877,5.234375,26.171875,-4.1875
1664629136492,0.2993164,-0.7710571,-0.09112549,11.59375,6.40625,7.21875
1664629136524,0.061279297,-0.40899658,-0.058654785,12.359375,-1.359375,5.5625
1664629136567,-0.091552734,-0.41973877,-0.12310791,-2.515625,-6.265625,5.65625
1664629136599,0.07055664,-0.66534424,-0.05206299,-6.015625,-2.203125,3.984375
1664629136641,-0.034179688,-0.8242798,-0.008117676,-5.96875,-4.3125,-2.5625
1664629136688,-0.17602539,-0.67022705,-0.06451416,-13.515625,10.21875,2.578125
1664629136717,0.048583984,-0.7756958,-0.33184814,-15.1875,10.8125,-1.453125
1664629136762,0.1953125,-1.5977173,0.024108887,-25.34375,42.734375,-0.03125
1664629136822,1.0664062,-2.0,-0.21173096,-11.046875,4.453125,0.0625
1664629136836,-0.21972656,-1.4456177,-0.12994385,3.78125,-2.453125,6.625
1664629136896,0.1418457,-1.3467407,-0.0569458,7.828125,28.609375,-2.140625
1664629136915,0.8483887,-1.093811,-0.10064697,8.921875,-1.296875,16.28125
1664629136970,-0.04711914,-0.7180786,-0.027404785,15.5,-17.921875,26.046875
1664629137000,-0.11767578,-0.40118408,-0.0029907227,12.375,3.515625,8.046875
1664629137031,0.06689453,-0.5857544,0.078308105,5.296875,17.921875,2.8125
1664629137078,-0.17211914,-0.45733643,0.012878418,-4.765625,27.6875,1.3125
1664629137154,0.09033203,-0.5730591,-0.07672119,-16.15625,40.28125,-7.328125
1664629137159,0.39404297,-0.8140259,-0.03668213,-7.390625,33.296875,-5.421875
1664629137225,0.5551758,-0.87042236,0.016784668,-5.84375,8.3125,11.046875
1664629137273,0.072753906,-1.3858032,-0.18634033,-8.6875,-4.640625,2.78125
1664629137277,0.32836914,-1.3169556,-0.3604126,3.34375,27.234375,3.0625
1664629137319,-0.029296875,-1.822815,-0.23150635,7.78125,8.53125,6.03125
1664629137347,0.2368164,-1.4138794,0.013366699,13.625,10.328125,5.265625
1664629137392,0.08569336,-0.9741821,-0.1350708,2.203125,4.296875,12.265625
1664629137455,-0.26513672,-1.2451782,-0.019348145,-11.671875,35.703125,4.25
1664629137466,0.111328125,-1.006897,0.049987793,-12.203125,27.40625,8.265625
1664629137526,-0.022705078,-0.35162354,-0.09844971,-15.9375,18.53125,5.8125
1664629137556,-0.2788086,-0.5545044,-0.043762207,-16.65625,31.21875,9.375
1664629137587,-0.091796875,-0.77008057,0.14984131,-5.703125,15.90625,7.09375
1664629137633,-0.041015625,-0.79400635,0.10638428,-27.140625,45.9375,12.359375
1664629137664,-0.068359375,-1.2166138,-0.024475098,-22.46875,55.75,-2.71875
1664629137706,0.47192383,-0.9248657,-0.3093872,-6.0,24.828125,1.921875
1664629137753,0.3635254,-0.6116333,-0.4505005,16.453125,25.515625,-1.734375
1664629137782,0.732666,-1.4170532,-0.3789673,-10.59375,15.59375,17.9375
1664629137826,-0.044677734,-2.0,-0.62384033,8.96875,23.09375,-20.640625
1664629137871,0.41748047,-1.7842407,-0.29571533,0.703125,47.375,12.53125
1664629137901,-0.37573242,-1.375061,0.04827881,-9.078125,61.734375,11.5
1664629137962,-0.63623047,-0.60723877,-0.270813,-3.796875,99.890625,-1.75
1664629137995,0.118652344,-0.50665283,-0.37945557,-4.921875,120.984375,19.6875
1664629138023,-0.021484375,-0.678772,-0.32086182,-5.28125,116.3125,35.125
1664629138081,0.3154297,-0.40386963,-0.31134033,-10.28125,58.578125,25.171875
1664629138095,0.5305176,-0.6724243,-0.043273926,-20.5,45.578125,26.9375
1664629138159,0.39404297,-1.1109009,-0.23809814,-16.296875,21.25,11.65625
1664629138187,-0.06347656,-1.1167603,0.015319824,-7.9375,4.46875,-12.234375
1664629138215,-0.4206543,-1.2852173,-0.4085083,-26.484375,33.734375,-9.109375
1664629138261,0.19726562,-1.288147,-0.737854,0.5,68.296875,3.796875
1664629138309,-0.1015625,-1.1143188,-0.50177,-27.796875,60.421875,20.78125
1664629138336,0.2932129,-1.0357056,-0.44683838,-6.609375,80.09375,3.75
1664629138380,0.44091797,-1.1607056,-0.40338135,-2.90625,62.09375,7.84375
1664629138414,0.12182617,-0.7764282,-0.13140869,5.84375,50.171875,12.296875
1664629138489,-0.032958984,-0.63848877,-0.19561768,-2.765625,47.859375,9.140625
1664629138507,0.17456055,-0.6655884,-0.22442627,-2.890625,43.328125,11.0
1664629138536,0.22558594,-0.77838135,-0.26080322,-7.265625,30.484375,15.078125
1664629138590,0.041992188,-0.9221802,-0.14239502,1.46875,26.265625,17.984375
1664629138621,-0.053222656,-1.0078735,-0.22369385,-19.21875,25.234375,18.5
1664629138651,-0.06274414,-0.9524536,-0.30108643,-26.78125,12.703125,11.765625
1664629138713,0.037353516,-1.2859497,-0.20928955,-16.796875,21.171875,10.578125
1664629138787,-0.064453125,-1.2571411,-0.120666504,-17.078125,16.421875,3.15625
1664629138793,0.052246094,-1.1504517,-0.23687744,-12.9375,24.34375,-4.453125
1664629138817,0.15283203,-0.878479,-0.378479,-6.125,32.109375,-2.140625
1664629138846,0.37036133,-0.741272,-0.3616333,-3.59375,40.671875,-4.5625
1664629138891,0.5576172,-0.89312744,-0.3008423,-8.078125,35.8125,-4.1875
1664629138937,0.22973633,-1.1873169,-0.25616455,-13.0,29.40625,1.515625
1664629138967,0.13427734,-1.107727,-0.22052002,-6.0625,36.09375,2.9375
1664629139040,0.18774414,-0.99176025,-0.18756104,-11.796875,36.609375,3.984375
1664629139055,0.07348633,-0.8328247,-0.16217041,-8.921875,34.859375,1.09375
1664629139085,0.16625977,-0.78082275,-0.13482666,-6.609375,35.078125,1.671875
1664629139146,0.09326172,-0.74786377,-0.11627197,-4.671875,31.90625,1.484375
1664629139160,0.17382812,-0.6860962,-0.12530518,-7.953125,22.0625,3.171875
1664629139225,0.18530273,-0.694397,-0.0076293945,-6.34375,18.9375,2.1875
1664629139252,-0.03515625,-0.87677,0.050720215,-15.59375,18.71875,-0.359375
1664629139284,-0.040527344,-0.97662354,0.035583496,-18.375,27.96875,-6.734375
1664629139326,0.091308594,-1.0808716,-0.039123535,-10.9375,29.203125,-9.375
1664629139371,0.32592773,-1.24469,0.0692749,-5.390625,12.125,-9.84375
1664629139403,-0.0053710938,-1.388977,-0.25421143,-1.734375,8.75,-4.265625
1664629139445,0.17016602,-1.2368774,-0.5928345,21.703125,29.515625,8.21875
1664629139493,0.35498047,-0.95635986,-0.45733643,11.0625,20.484375,22.71875
1664629139524,0.096191406,-0.7258911,-0.3098755,6.6875,24.875,15.34375
1664629139573,0.11669922,-1.1421509,-0.35723877,5.921875,36.921875,0.40625
1664629139598,0.32250977,-1.2322388,-0.33135986,15.734375,29.234375,1.828125
1664629139641,0.099609375,-0.74542236,-0.24005127,16.953125,16.375,2.390625
1664629139716,0.028808594,-0.6838989,-0.19024658,7.140625,16.21875,3.6875
1664629139720,0.24072266,-0.7090454,-0.32110596,4.984375,7.859375,3.65625
1664629139776,0.27807617,-0.64556885,-0.23077393,9.953125,-8.625,-0.84375
1664629139805,0.18481445,-0.5935669,-0.16339111,6.25,-20.609375,-4.609375
1664629139835,-0.061035156,-0.43243408,0.008972168,0.59375,-25.828125,-7.140625
1664629139880,-0.23583984,-0.57403564,-0.0881958,-22.75,-11.046875,-6.234375
1664629139914,-0.0068359375,-0.8875122,-0.1609497,-26.0,-2.546875,-15.609375
1664629139986,0.059326172,-1.0925903,-0.32647705,-9.71875,-10.21875,-4.421875
1664629140006,0.28686523,-0.67559814,-0.39263916,-0.75,-35.671875,-0.921875
1664629140037,0.28125,-0.9036255,-0.3164673,-0.84375,1.46875,5.953125
1664629140108,0.71875,-2.0,-0.101623535,-13.3125,5.609375,3.90625
1664629140123,0.5805664,-1.6870728,-0.33355713,19.359375,-43.515625,7.515625
1664629140154,-0.4206543,-1.2913208,-0.19464111,13.640625,-1.609375,-9.78125
1664629140227,0.7236328,-0.9973755,-0.09942627,13.359375,-27.203125,4.546875
1664629140233,0.1508789,-0.8792114,-0.055480957,7.015625,-32.296875,5.421875
1664629140301,-0.2734375,-0.40777588,-0.039855957,13.375,-22.5,5.640625
1664629140317,0.12841797,-0.2925415,0.06365967,-0.953125,4.875,-0.34375
1664629140345,-0.04272461,-0.53497314,0.16131592,-16.953125,17.140625,-3.84375
1664629140422,-0.0061035156,-0.49346924,-0.124572754,-23.515625,30.109375,-19.765625
1664629140436,0.54418945,-0.59820557,-0.15093994,0.40625,16.09375,-13.015625
1664629140466,0.5371094,-1.2107544,-0.012756348,-2.59375,-18.515625,-3.4375
1664629140513,-0.059326172,-1.6843872,-0.2432251,10.984375,-9.75,-7.65625
1664629140556,0.111572266,-1.4497681,-0.6538696,13.703125,13.9375,-8.703125
1664629140586,0.49267578,-1.5337524,-0.4758911,19.3125,6.625,8.078125
1664629140632,-0.010498047,-1.486145,-0.12896729,-6.75,-3.46875,19.703125
1664629140663,-0.022705078,-1.2197876,-0.24713135,-2.484375,4.640625,-3.203125
1664629140706,0.19970703,-0.8731079,-0.27593994,15.265625,15.09375,2.921875
1664629140753,0.17407227,-0.5664673,-0.22735596,8.921875,-5.265625,13.171875
1664629140780,0.024414062,-0.41436768,-0.07891846,1.625,-15.421875,-1.015625
1664629140842,0.067871094,-0.31378174,-0.051818848,-1.78125,-15.5,-1.390625
1664629140872,-0.008300781,-0.43634033,-0.19708252,-13.4375,-17.125,1.234375
1664629140902,0.09423828,-0.79278564,-0.13970947,1.9375,-4.59375,-8.828125
1664629140975,0.0769043,-0.829895,-0.0947876,-11.515625,-21.21875,2.65625
1664629140980,-0.3413086,-0.67022705,-0.18682861,-14.46875,4.34375,0.078125
1664629141052,0.22485352,-1.222229,-0.16973877,-18.578125,45.9375,-23.171875
1664629141065,1.7680664,-2.0,-0.1843872,-20.671875,-19.890625,19.171875
1664629141097,-0.3305664,-1.6016235,-0.025939941,-4.765625,-26.015625,-0.953125
1664629141141,-0.35595703,-1.0593872,-0.33770752,18.90625,12.796875,-13.140625
1664629141187,0.97680664,-1.2998657,0.019226074,-7.5,-6.765625,3.765625
1664629141218,0.1928711,-1.4541626,0.09539795,12.15625,-30.78125,-7.671875
1664629141261,-0.10229492,-0.5532837,-0.10821533,16.5625,-7.078125,7.03125
1664629141323,-0.009765625,-0.1404419,0.0033569336,12.25,16.5625,7.515625
1664629141337,-0.026855469,-0.4993286,0.09051514,4.375,32.5625,-4.140625
1664629141396,0.04663086,-0.25933838,-0.06915283,-4.9375,21.9375,-8.171875
1664629141411,0.21484375,-0.44293213,-0.07354736,-0.796875,15.828125,-7.890625
1664629141474,0.32885742,-0.9336548,-0.070617676,-11.078125,6.96875,-2.21875
1664629141504,0.18286133,-1.298645,-0.31036377,13.421875,9.109375,-1.046875
1664629141533,0.6530762,-1.5357056,-0.46710205,17.078125,-3.09375,10.921875
1664629141591,-0.060791016,-1.6716919,-0.19268799,-1.4375,-28.28125,20.578125
1664629141627,-0.7739258,-1.4942017,-0.10992432,-14.9375,19.671875,-24.34375
1664629141651,0.95166016,-1.7727661,-0.38189697,-12.0625,28.328125,3.53125
1664629141697,-0.13085938,-0.9702759,-0.15704346,3.015625,-4.859375,5.203125
1664629141726,-0.31567383,-0.80133057,-0.11553955,0.21875,27.28125,-9.921875
1664629141771,0.36376953,-0.7012329,-0.19610596,3.78125,4.90625,4.65625
1664629141818,0.20263672,-0.23614502,-0.06549072,11.8125,-8.34375,5.90625
1664629141860,-0.20727539,-0.24273682,-0.109680176,0.125,-10.359375,5.46875
1664629141892,0.060058594,-0.5510864,-0.15338135,-10.703125,-2.8125,-0.09375
1664629141951,0.22460938,-0.7258911,0.005065918,-3.65625,-13.109375,-1.390625
1664629141967,-0.30151367,-0.55596924,-0.030334473,-21.609375,-17.609375,11.03125
1664629142027,-0.080078125,-1.0164185,-0.1651001,-5.875,47.21875,-4.0625
1664629142103,1.1621094,-1.847229,-0.22393799,-2.90625,6.796875,13.859375
1664629142107,0.041503906,-2.0,-0.14215088,-19.34375,-22.78125,5.875
1664629142131,0.013427734,-1.5344849,-0.19537354,18.796875,18.515625,-10.109375
1664629142163,0.9711914,-1.4343872,-0.0022583008,3.359375,-2.5625,6.046875
1664629142206,-0.057128906,-1.0278931,-0.045959473,7.4375,-29.734375,19.078125
1664629142281,-0.2536621,-0.35992432,0.07733154,18.6875,0.890625,1.46875
1664629142287,0.15844727,-0.442688,0.15570068,-4.625,8.53125,-5.171875
1664629142361,-0.09692383,-0.3735962,0.043640137,-0.140625,15.5625,-18.453125
1664629142373,0.2734375,-0.37530518,-0.10797119,-4.296875,17.609375,-10.28125
1664629142404,0.46142578,-0.65802,0.029724121,5.125,6.21875,-9.609375
1664629142446,0.015136719,-1.1646118,-0.09991455,5.0,-9.484375,-3.828125
1664629142476,-0.11376953,-1.0657349,-0.21295166,17.828125,6.265625,-4.609375
1664629142521,0.11376953,-1.1074829,-0.38336182,11.203125,31.046875,8.640625
1664629142587,0.484375,-1.5569458,-0.37042236,1.625,18.578125,5.515625
1664629142595,0.33911133,-2.0,-0.26812744,-15.53125,-8.5625,17.125
1664629142656,0.3774414,-1.3218384,-0.3032837,3.3125,-7.734375,9.140625
1664629142686,0.05493164,-0.9763794,-0.06085205,2.1875,-11.984375,8.359375
1664629142716,-0.15454102,-0.6782837,0.016784668,1.921875,-2.875,-1.71875
1664629142760,0.034179688,-0.4229126,-0.06329346,13.75,5.875,-10.71875
1664629142806,0.08569336,-0.25665283,-0.18121338,11.484375,-4.09375,3.640625
1664629142835,0.21655273,-0.5166626,-0.09527588,-1.171875,-13.859375,8.9375
1664629142881,0.16381836,-0.64508057,-0.08917236,3.796875,-22.921875,2.4375
1664629142956,-0.19995117,-0.72369385,-0.026184082,-20.0,-8.265625,1.390625
1664629142963,0.080566406,-0.8521118,-0.10870361,-5.65625,6.296875,-3.328125
1664629143003,0.39892578,-0.92193604,-0.37994385,-3.515625,18.765625,4.046875
1664629143032,0.6347656,-1.8118286,0.010925293,-21.75,8.703125,0.1875
1664629143077,0.7626953,-2.0,-0.29840088,1.296875,-30.6875,3.609375
1664629143138,0.12451172,-1.6030884,-0.19659424,-0.6875,-32.921875,-9.171875
1664629143153,0.11010742,-1.0669556,-0.03741455,25.390625,-4.953125,-4.875
1664629143211,0.13623047,-0.57818604,0.02508545,14.890625,-13.453125,9.4375
1664629143226,-0.07348633,-0.40020752,0.027282715,4.375,8.296875,5.765625
1664629143286,-0.0637207,-0.34552002,0.1449585,1.625,19.8125,-5.96875
1664629143315,0.03955078,-0.41607666,-0.13067627,-18.765625,26.53125,-13.234375
1664629143345,0.2109375,-0.6680298,-0.101379395,-4.890625,34.046875,-18.4375
1664629143394,0.66430664,-0.8262329,-0.17022705,9.46875,11.375,7.484375
1664629143438,0.2783203,-0.96832275,-0.045715332,-2.375,-20.09375,15.5
1664629143468,-0.32299805,-1.2930298,-0.40899658,12.921875,4.484375,-17.296875
1664629143515,0.4489746,-1.4666138,-0.45465088,1.953125,8.953125,-2.46875
1664629143545,0.041015625,-1.982727,0.05218506,-14.5,-9.21875,4.0
1664629143617,-0.12182617,-1.3892212,-0.26568604,-11.875,17.046875,-8.421875
1664629143635,0.1159668,-1.2766724,-0.20831299,-4.578125,14.578125,-7.875
1664629143662,-0.015625,-0.8267212,-0.18756104,-2.984375,12.71875,-2.15625
1664629143723,0.11645508,-0.41851807,-0.09844971,-4.640625,11.5625,1.25
1664629143751,0.03515625,-0.2432251,0.00579834,2.0,9.859375,11.421875
1664629143782,-0.26782227,-0.41558838,-0.09161377,-19.53125,16.09375,8.65625
1664629143842,0.017333984,-0.7678833,-0.12432861,-16.78125,25.8125,-3.9375
1664629143873,0.47143555,-0.86553955,-0.058410645,1.671875,9.59375,13.546875
1664629143900,-0.3720703,-0.7756958,0.117614746,-15.15625,9.4375,9.625
1664629143947,-0.20483398,-1.1963501,-0.09210205,-3.484375,50.78125,-19.671875
1664629143978,1.1533203,-1.2583618,-0.48980713,26.875,18.21875,12.828125
1664629144023,0.43823242,-1.6033325,0.17108154,-1.953125,-6.046875,14.375
1664629144066,-0.36157227,-1.8164673,-0.2600708,8.390625,8.6875,-15.921875
1664629144096,0.6340332,-1.3074341,-0.10064697,15.265625,21.625,-0.3125
1664629144141,0.068115234,-1.0151978,0.04144287,5.75,7.34375,15.796875
1664629144202,-0.29003906,-0.38336182,-0.00592041,13.359375,17.765625,11.0625
1664629144218,0.13720703,-0.26055908,0.005065918,-4.875,35.296875,8.46875
1664629144277,0.025390625,-0.50079346,0.13153076,-11.546875,38.53125,3.59375
1664629144291,-0.011474609,-0.35455322,-0.23956299,-10.6875,36.96875,-4.4375
1664629144349,0.4609375,-0.86260986,-0.1897583,-2.515625,41.875,-5.140625
1664629144380,0.4765625,-1.2671509,-0.2744751,-3.359375,12.171875,-1.046875
1664629144410,0.034423828,-1.3306274,-0.48492432,10.53125,-0.578125,17.359375
1664629144471,0.19067383,-1.4246216,-0.31207275,5.6875,-1.546875,16.0
1664629144501,-0.08959961,-1.9653931,-0.16339111,-5.703125,2.6875,-3.609375
1664629144531,0.13793945,-1.5310669,-0.21417236,-1.8125,30.96875,-3.953125
1664629144579,0.17285156,-1.0718384,-0.18292236,-2.4375,13.890625,6.0625
1664629144620,-0.2084961,-0.77056885,-0.16607666,-3.359375,13.015625,4.078125
1664629144651,-0.11206055,-0.5635376,-0.08795166,2.5,19.5625,11.328125
1664629144695,-0.05517578,-0.40704346,-0.097473145,-2.578125,21.75,9.015625
1664629144726,-0.1027832,-0.45196533,-0.039611816,0.390625,28.859375,15.53125
1664629144772,-0.08203125,-0.65289307,0.010925293,-6.140625,28.828125,17.109375
1664629144848,-0.17895508,-0.8467407,-0.0095825195,-12.53125,38.671875,7.984375
1664629144852,-0.039794922,-0.8977661,-0.116760254,-28.328125,36.875,4.421875
1664629144923,-0.10595703,-1.291565,0.047058105,-42.40625,44.0625,1.71875
1664629144936,0.27563477,-1.2688599,-0.39605713,-28.78125,32.28125,-6.59375
1664629144966,0.42993164,-0.69317627,-0.3670044,12.015625,31.484375,-3.625
1664629145026,0.110839844,-1.2608032,-0.23077393,-1.28125,26.03125,-1.5625
1664629145047,0.056152344,-1.9956665,-0.4541626,-1.46875,55.296875,-12.609375
1664629145085,0.33740234,-1.8052368,-0.44171143,6.796875,58.125,-4.171875
1664629145133,-0.033203125,-1.3328247,-0.11260986,-2.359375,49.5,21.25
1664629145162,-0.50219727,-0.78497314,-0.15924072,-12.78125,54.15625,15.296875
1664629145207,-0.0075683594,-0.41412354,-0.14483643,-3.84375,68.59375,6.484375
1664629145252,0.17895508,-0.5701294,-0.18511963,-5.609375,62.796875,19.359375
1664629145283,0.30322266,-0.5696411,-0.116760254,-1.8125,49.84375,20.484375
1664629145327,0.2265625,-0.67437744,-0.04156494,-10.046875,33.203125,22.109375
1664629145407,0.10058594,-1.1672974,-0.042053223,-10.859375,34.5625,11.25
1664629145415,0.46362305,-1.3411255,0.001159668,-7.21875,19.0625,2.875
1664629145461,-0.039794922,-1.1516724,-0.1663208,0.96875,5.0625,9.984375
1664629145476,-0.14916992,-0.9990845,-0.43658447,4.6875,35.96875,-7.546875
1664629145536,0.35083008,-1.1983032,-0.43902588,-0.5625,38.0625,19.109375
1664629145567,-0.17871094,-1.1897583,-0.48394775,-12.953125,26.5625,16.640625
1664629145597,0.07397461,-1.1150513,-0.36627197,1.640625,52.109375,-5.53125
1664629145641,0.30200195,-1.1306763,-0.32403564,5.671875,51.96875,12.734375
1664629145687,-0.031982422,-0.7090454,-0.15777588,8.859375,45.609375,15.078125
1664629145717,-0.118652344,-0.63653564,-0.25616455,-6.09375,49.0,10.5
1664629145760,0.14135742,-0.8352661,-0.28546143,-12.15625,41.8125,14.390625
1664629145793,0.2631836,-0.862854,-0.23028564,-14.578125,34.65625,15.90625
1664629145838,0.10888672,-0.694397,-0.23736572,-11.140625,22.5625,22.046875
1664629145882,0.040527344,-0.7546997,-0.21881104,-7.03125,18.265625,15.90625
1664629145911,0.17895508,-0.82940674,-0.29351807,-15.96875,0.78125,15.859375
1664629145955,0.08300781,-1.2471313,-0.19683838,-3.75,6.546875,21.390625
1664629146017,-0.3972168,-1.4180298,-0.19366455,-24.09375,11.890625,-0.96875
1664629146037,-0.03149414,-1.2478638,-0.2859497,-15.3125,30.21875,-7.921875
1664629146107,0.48217773,-1.0420532,-0.46099854,-3.03125,32.03125,-0.203125
1664629146120,0.60546875,-0.6265259,-0.409729,19.25,23.796875,3.671875
1664629146153,0.46118164,-0.5803833,-0.31207275,-0.328125,14.53125,6.203125
1664629146214,0.21166992,-1.2766724,-0.23809814,-12.21875,24.9375,-0.40625
1664629146273,0.4387207,-1.1323853,-0.36602783,1.203125,21.03125,8.84375
1664629146277,0.33496094,-0.85040283,-0.29156494,-2.4375,23.109375,11.28125
1664629146315,0.31103516,-0.85406494,-0.22003174,1.03125,12.6875,11.0625
1664629146346,0.19726562,-0.84454346,-0.20977783,-3.75,18.375,12.25
1664629146391,0.18676758,-0.72442627,-0.1482544,1.328125,25.421875,10.609375
1664629146436,0.115234375,-0.5706177,-0.08282471,-6.15625,24.375,13.875
1664629146466,0.09838867,-0.3887329,-0.07281494,-18.609375,27.875,9.265625
1664629146517,-0.010253906,-0.6013794,0.022399902,-26.5,43.671875,-2.359375
1664629146547,0.24487305,-0.5762329,-0.22564697,-25.140625,28.046875,-11.125
1664629146602,0.43969727,-0.7329712,-0.109436035,-16.640625,27.875,-11.9375
1664629146632,0.4699707,-1.1123657,-0.12994385,-27.390625,4.0,-0.25
1664629146662,0.19799805,-1.267395,-0.11407471,-5.609375,-8.21875,-24.5625
1664629146723,0.22949219,-1.1589966,-0.36993408,20.5,9.5625,-18.078125
1664629146752,0.6430664,-1.1929321,-0.46295166,-9.328125,1.375,15.890625
1664629146781,-0.23828125,-1.5442505,-0.64068604,-11.9375,7.046875,-3.640625
1664629146827,0.47851562,-1.4966431,-0.1975708,11.25,23.90625,-4.109375
1664629146863,0.4206543,-1.0115356,-0.23883057,-4.28125,-8.1875,12.75
1664629146902,-0.32226562,-0.72369385,-0.105773926,1.5,20.703125,-18.140625
1664629146949,0.16674805,-0.7300415,-0.2263794,0.84375,15.625,-2.46875
1664629146977,0.2680664,-0.49420166,-0.17974854,5.453125,0.28125,6.859375
1664629147050,0.0017089844,-0.51519775,-0.16607666,-6.953125,-9.359375,4.96875
1664629147066,0.005859375,-0.67852783,-0.008361816,-12.84375,1.734375,0.046875
1664629147095,-0.025146484,-0.8352661,-0.074523926,-20.1875,0.765625,-3.484375
1664629147158,0.061035156,-0.95318604,-0.061340332,-21.015625,5.96875,0.171875
1664629147185,-0.14990234,-1.0098267,-0.15631104,-9.171875,11.90625,-8.578125
1664629147217,0.4892578,-0.6741333,-0.30426025,16.890625,13.96875,-17.96875
1664629147277,0.4333496,-0.9336548,-0.12335205,0.171875,-2.0,12.96875
1664629147291,0.3544922,-2.0,-0.14019775,-39.015625,17.234375,-2.359375
1664629147350,0.20483398,-1.2659302,-0.0076293945,28.96875,-12.5625,1.484375
1664629147381,0.10888672,-1.2424927,-0.13970947,-10.765625,6.453125,12.484375
1664629147410,0.39624023,-1.2590942,0.007019043,16.4375,-11.0,-11.9375
1664629147486,0.14941406,-0.81573486,-0.037902832,6.953125,-18.171875,1.4375
1664629147504,-0.010009766,-0.5772095,-0.008850098,8.15625,-15.328125,2.90625
1664629147533,0.171875,-0.67559814,0.05316162,0.609375,-3.75,1.515625
1664629147576,0.06567383,-0.6121216,0.04925537,-3.1875,3.421875,2.109375
1664629147606,-0.0234375,-0.567688,0.07196045,-6.125,7.734375,-7.546875
1664629147651,0.09057617,-0.661438,0.014099121,-11.53125,11.53125,-11.59375
1664629147730,0.1965332,-0.74053955,-0.061584473,-4.671875,2.734375,-2.4375
1664629147736,0.28027344,-1.1865845,0.21234131,-21.0625,-3.3125,-0.078125
1664629147786,-0.20239258,-1.3694458,-0.16802979,1.0,5.59375,-21.515625
1664629147816,0.38110352,-1.0720825,-0.5359497,7.171875,34.828125,13.5
1664629147845,0.98461914,-1.742981,-0.29156494,-3.625,-5.09375,20.890625
1664629147905,-0.20825195,-1.2891235,0.3522339,-5.859375,-17.6875,3.15625
1664629147936,-0.68066406,-1.1504517,-0.25177002,4.859375,34.09375,-24.59375
1664629147966,0.7770996,-1.2129517,-0.26617432,12.125,18.328125,1.671875
1664629148010,0.31201172,-0.58062744,-0.0725708,10.140625,-21.921875,21.078125
1664629148043,-0.09814453,-0.28277588,-0.069885254,-0.75,-23.375,9.234375
1664629148087,-0.0871582,-0.5762329,0.074157715,-0.21875,-3.78125,7.34375
1664629148132,0.0048828125,-0.7161255,-0.06842041,-3.453125,1.890625,-3.375
1664629148161,0.021484375,-0.755188,0.018981934,-6.421875,-4.8125,-7.546875
1664629148206,-0.34179688,-0.86724854,-0.0569458,-17.140625,1.578125,2.8125
1664629148267,0.44458008,-1.2910767,-0.12823486,-7.703125,28.375,-12.84375
1664629148281,1.8127441,-1.7525024,-0.19952393,-5.546875,-28.75,28.578125
1664629148342,-0.8186035,-1.8203735,0.28753662,-3.25,-20.59375,13.921875
1664629148356,0.072509766,-1.1785278,-0.17193604,23.515625,39.40625,-24.765625
1664629148417,0.7741699,-0.923645,-0.0012817383,5.015625,19.921875,2.09375
1664629148447,0.16674805,-1.1279907,0.03338623,-8.375,-3.890625,13.71875
1664629148477,-0.0034179688,-0.7246704,0.10003662,3.34375,-1.125,-4.59375
1664629148522,0.15942383,-0.4727173,0.061462402,5.34375,9.796875,-6.78125
1664629148565,0.00390625,-0.4060669,0.051696777,-1.375,16.078125,-4.9375
1664629148597,0.103027344,-0.34698486,-0.06793213,-7.78125,11.84375,-8.8125
1664629148678,0.1015625,-0.75445557,0.082458496,-8.59375,10.75,-13.390625
1664629148748,0.35791016,-0.89849854,-0.1795044,9.375,14.296875,-9.0
1664629148754,0.46826172,-0.76153564,-0.002746582,3.59375,5.828125,17.203125
1664629148762,0.100097656,-1.7896118,-0.4475708,12.53125,-15.578125,-8.21875
1664629148790,0.39868164,-1.4141235,-0.4902954,24.296875,7.265625,27.078125
1664629148836,0.1081543,-1.6182251,0.21136475,-7.21875,-5.390625,14.78125
1664629148897,-0.10253906,-1.4348755,-0.0491333,-10.875,20.546875,-13.03125
1664629148917,0.32348633,-1.0039673,-0.17266846,8.828125,16.953125,1.875
1664629148969,0.18652344,-0.62042236,-0.051086426,1.21875,-6.953125,13.625
1664629149001,0.049560547,-0.663147,-6.1035156E-5,-5.328125,-6.921875,-3.015625
1664629149032,0.16040039,-0.50250244,-0.020324707,10.0,-15.65625,-4.171875
1664629149106,-0.076171875,-0.34527588,-0.11260986,4.0625,-24.625,2.84375
1664629149111,0.13867188,-0.5462036,-0.033996582,-10.28125,-20.375,-6.046875
1664629149201,-0.0073242188,-0.40826416,-0.09039307,0.953125,-16.703125,1.90625
1664629149205,0.19726562,-0.770813,-0.27789307,7.3125,22.796875,4.359375
1664629149226,1.3037109,-2.0,0.12738037,-21.5625,-17.609375,-10.546875
1664629149300,0.45092773,-1.6607056,-0.10650635,7.59375,-50.25,17.84375
1664629149317,-0.49194336,-1.2532349,-0.06842041,25.109375,-30.125,-11.296875
1664629149345,0.2175293,-0.9031372,-0.030334473,29.0,9.703125,-11.953125
1664629149421,0.27392578,-0.79766846,0.1630249,-5.1875,-0.578125,13.046875
1664629149435,0.11401367,-1.017395,0.307312,-28.453125,-2.25,-14.890625
1664629149465,-0.19921875,-0.4229126,-0.09552002,3.34375,6.34375,-39.296875
1664629149526,0.31079102,-0.051086426,-0.08258057,0.9375,32.890625,-15.78125
1664629149600,0.62890625,-0.63287354,-0.2053833,10.421875,2.0,-2.0
1664629149605,-0.06665039,-1.069397,-0.5630493,-2.34375,-14.953125,12.921875
1664629149631,0.1821289,-1.3872681,-0.5220337,17.453125,3.375,7.4375
1664629149664,0.32080078,-2.0,-0.12042236,-10.515625,-9.484375,6.34375
1664629149708,-0.07128906,-1.7962036,-0.11187744,-5.421875,6.1875,14.484375
1664629149750,0.040283203,-0.9751587,-0.16265869,11.078125,13.5,-10.15625
1664629149781,0.28198242,-0.85284424,-0.16485596,1.015625,1.765625,-3.390625
1664629149826,0.26953125,-0.69000244,-0.016418457,8.3125,-26.640625,1.09375
1664629149856,-0.06665039,-0.395813,-0.1038208,6.078125,-39.875,2.75
1664629149907,-0.17651367,-0.56451416,-0.11456299,-0.484375,-11.71875,-3.921875
1664629149977,-0.0034179688,-0.94732666,-0.035217285,-6.0625,-8.25,-11.5
1664629149981,-0.06567383,-0.90167236,-0.047912598,-9.609375,-11.859375,0.8125
1664629150053,-0.012451172,-0.6826782,-0.093811035,-14.40625,-11.109375,-4.0625
1664629150067,-0.05810547,-0.79400635,-0.20611572,-10.5625,-0.390625,-0.296875
1664629150098,0.29418945,-1.3704224,-0.024963379,-29.921875,22.71875,-7.96875
1664629150158,0.6916504,-1.3726196,-0.12872314,0.109375,4.8125,-5.671875
1664629150173,0.41381836,-1.5198364,0.058044434,-8.109375,-31.03125,18.609375
1664629150231,-0.42236328,-1.6240845,0.0040893555,1.53125,-11.03125,-6.609375
1664629150264,0.83691406,-1.1819458,0.09588623,8.8125,-14.28125,-1.71875
1664629150290,0.013916016,-1.1340942,0.041931152,6.078125,-27.6875,1.671875
1664629150336,-0.1665039,-0.79888916,0.030212402,16.53125,-7.34375,-6.40625
1664629150382,0.19873047,-0.63287354,0.062927246,10.75,1.578125,-2.28125
1664629150429,0.09399414,-0.6428833,0.03265381,4.28125,1.359375,4.0
1664629150456,0.103759766,-0.5852661,0.03289795,0.34375,2.90625,4.09375
1664629150534,0.12084961,-0.53741455,0.13397217,-4.09375,3.3125,4.234375
1664629150537,-0.08276367,-0.55792236,0.058288574,4.640625,-0.265625,-6.15625
1664629150591,0.24389648,-0.6777954,0.10223389,1.109375,-1.96875,-0.953125
