# Sensor type: Respeck
# Activity type: Sitting
# Activity code: 0
# Subject id: s1918275
# Notes: 
timestamp,accel_x,accel_y,accel_z,gyro_x,gyro_y,gyro_z
1664627490900,0.20703125,-0.9524536,-0.2078247,-1.140625,-0.375,-0.0625
1664627490943,0.21289062,-0.93170166,-0.20343018,-2.765625,-2.390625,-1.5
1664627490990,0.20117188,-0.95928955,-0.18048096,2.171875,-0.34375,-2.84375
1664627491021,0.1862793,-0.9536743,-0.18707275,-0.875,-0.421875,-2.140625
1664627491050,0.19262695,-0.9570923,-0.19390869,-1.65625,-1.609375,-0.625
1664627491131,0.18701172,-0.942688,-0.17828369,-1.9375,-0.359375,-0.15625
1664627491136,0.19042969,-0.96661377,-0.18756104,0.71875,-0.328125,1.8125
1664627491170,0.20751953,-0.94854736,-0.18365479,-2.578125,-0.03125,-0.734375
1664627491217,0.20019531,-0.9470825,-0.16363525,-0.109375,-1.140625,-0.53125
1664627491247,0.20776367,-0.9483032,-0.18609619,-1.875,-2.046875,-2.359375
1664627491290,0.1928711,-0.9558716,-0.1663208,0.34375,-2.203125,-3.6875
1664627491353,0.17529297,-0.96954346,-0.17755127,3.46875,-1.625,-1.375
1664627491368,0.18554688,-0.95098877,-0.17218018,-0.828125,-0.46875,-2.90625
1664627491425,0.18334961,-0.9590454,-0.16998291,-0.21875,0.203125,-0.375
1664627491440,0.17626953,-0.94244385,-0.17095947,-0.515625,0.25,-0.4375
1664627491502,0.18457031,-0.9614868,-0.17730713,-0.625,-0.03125,0.0
1664627491531,0.16210938,-0.9434204,-0.17681885,0.53125,1.921875,1.109375
1664627491562,0.16186523,-0.96881104,-0.18292236,3.078125,1.328125,2.765625
1664627491608,0.17211914,-0.9636841,-0.18341064,3.046875,1.859375,2.203125
1664627491651,0.18481445,-0.9505005,-0.18756104,1.78125,0.609375,1.78125
1664627491683,0.17602539,-0.95196533,-0.1795044,0.359375,1.203125,2.5
1664627491725,0.17944336,-0.95391846,-0.17193604,5.515625,2.25,4.578125
1664627491756,0.2133789,-0.9456177,-0.20758057,5.0,1.71875,5.40625
1664627491801,0.22338867,-0.92974854,-0.20904541,4.890625,0.625,3.171875
1664627491850,0.1953125,-0.93756104,-0.19781494,8.234375,-0.46875,3.921875
1664627491879,0.20703125,-0.954895,-0.19073486,6.21875,1.609375,2.96875
1664627491922,0.22290039,-0.9512329,-0.21661377,4.625,1.53125,2.859375
1664627491980,0.23461914,-0.92633057,-0.2341919,3.234375,1.03125,2.515625
1664627492003,0.23461914,-0.93463135,-0.23980713,1.921875,0.53125,0.8125
1664627492058,0.22192383,-0.93341064,-0.24127197,1.1875,-0.09375,0.203125
1664627492087,0.21801758,-0.9212036,-0.2420044,1.046875,-0.515625,0.03125
1664627492116,0.2175293,-0.9390259,-0.23443604,0.703125,0.40625,-0.390625
1664627492162,0.2121582,-0.9360962,-0.23345947,0.875,-0.203125,-0.515625
1664627492192,0.21826172,-0.93218994,-0.22906494,0.390625,0.1875,-0.125
1664627492235,0.22070312,-0.93292236,-0.23468018,0.3125,0.125,0.25
1664627492280,0.21728516,-0.9290161,-0.22808838,0.546875,-0.515625,0.609375
1664627492314,0.2265625,-0.9365845,-0.23736572,-2.109375,-0.296875,0.796875
1664627492386,0.21801758,-0.93707275,-0.21929932,1.625,-0.578125,0.953125
1664627492400,0.22216797,-0.9326782,-0.23687744,-1.84375,0.21875,0.046875
1664627492430,0.22509766,-0.93414307,-0.2288208,-0.296875,-0.125,-0.171875
1664627492477,0.22241211,-0.9336548,-0.22393799,1.34375,-0.140625,0.890625
1664627492506,0.23266602,-0.9319458,-0.22149658,0.0625,0.078125,-0.109375
1664627492551,0.22094727,-0.93170166,-0.2312622,1.359375,0.609375,0.109375
1664627492610,0.22143555,-0.93048096,-0.22711182,1.640625,-0.015625,0.40625
1664627492625,0.23217773,-0.9390259,-0.23443604,1.3125,0.046875,-0.078125
1664627492685,0.22070312,-0.9307251,-0.2300415,1.671875,0.109375,0.15625
1664627492715,0.22192383,-0.93927,-0.23516846,1.3125,-0.8125,-0.015625
1664627492745,0.2265625,-0.93341064,-0.23345947,0.953125,0.03125,-0.078125
1664627492792,0.22143555,-0.93218994,-0.2288208,1.09375,-0.234375,-0.390625
1664627492838,0.21582031,-0.9368286,-0.22808838,1.109375,-0.109375,0.265625
1664627492867,0.21850586,-0.9402466,-0.23931885,1.078125,0.15625,0.5
1664627492911,0.22314453,-0.93463135,-0.23370361,1.46875,-0.015625,0.78125
1664627492946,0.23120117,-0.9204712,-0.23980713,-0.65625,0.4375,-0.078125
1664627492985,0.20874023,-0.9348755,-0.22296143,3.046875,-0.5625,0.765625
1664627493031,0.22485352,-0.9282837,-0.24273682,-1.015625,0.15625,-0.1875
1664627493062,0.2241211,-0.9348755,-0.23028564,0.609375,-0.671875,-0.46875
1664627493105,0.21240234,-0.93927,-0.22833252,1.546875,-0.796875,0.796875
1664627493166,0.23413086,-0.92803955,-0.23028564,0.625,-0.0625,0.078125
1664627493182,0.21704102,-0.92852783,-0.23614502,1.984375,0.40625,0.125
1664627493242,0.22973633,-0.9290161,-0.23370361,1.90625,-0.109375,0.609375
1664627493257,0.23999023,-0.92437744,-0.2510376,0.921875,-0.53125,-0.25
1664627493318,0.2175293,-0.9258423,-0.2366333,1.765625,0.203125,-0.25
1664627493348,0.21826172,-0.93536377,-0.2354126,1.96875,-0.375,0.15625
1664627493375,0.22436523,-0.9299927,-0.24078369,0.875,-0.078125,-0.140625
1664627493420,0.22436523,-0.9260864,-0.24884033,1.078125,0.078125,-0.265625
1664627493468,0.22851562,-0.92388916,-0.24835205,1.40625,-0.25,-0.203125
1664627493494,0.2241211,-0.92681885,-0.2456665,1.078125,-0.28125,-0.34375
1664627493541,0.22143555,-0.9348755,-0.24639893,2.109375,0.09375,0.109375
1664627493587,0.22875977,-0.92266846,-0.2498169,-0.5,0.296875,-0.53125
1664627493617,0.21044922,-0.93585205,-0.23394775,3.078125,-0.421875,0.140625
1664627493691,0.22216797,-0.9265747,-0.2588501,-1.46875,0.40625,-0.328125
1664627493695,0.22631836,-0.9356079,-0.25054932,-0.1875,-0.09375,-0.046875
1664627493751,0.2175293,-0.9299927,-0.23980713,2.0625,-0.25,0.71875
1664627493787,0.23022461,-0.9290161,-0.24761963,0.171875,-0.375,0.03125
1664627493811,0.21850586,-0.92926025,-0.25006104,1.578125,0.40625,0.328125
1664627493871,0.23217773,-0.9302368,-0.24786377,1.1875,-0.03125,0.171875
1664627493903,0.22167969,-0.9319458,-0.26226807,0.59375,-0.296875,-0.125
1664627493932,0.2163086,-0.92755127,-0.2468872,0.84375,-0.28125,0.125
1664627493976,0.22338867,-0.9307251,-0.2498169,0.609375,-0.546875,0.375
1664627494006,0.2211914,-0.925354,-0.24737549,0.453125,0.125,-0.09375
1664627494051,0.22827148,-0.9290161,-0.24908447,0.609375,-0.203125,-0.28125
1664627494098,0.22216797,-0.93170166,-0.25006104,0.921875,-0.6875,-0.078125
1664627494125,0.2319336,-0.9265747,-0.24786377,1.046875,-0.125,-0.0625
1664627494171,0.21655273,-0.9258423,-0.24957275,0.515625,-0.203125,0.125
1664627494232,0.22241211,-0.9246216,-0.25372314,-1.453125,-0.15625,-0.03125
1664627494248,0.21020508,-0.93170166,-0.23760986,2.09375,-0.5625,0.15625
1664627494309,0.22680664,-0.93170166,-0.26202393,-1.90625,-0.78125,0.203125
1664627494322,0.23144531,-0.92926025,-0.253479,-1.046875,-0.15625,-0.453125
1664627494380,0.21826172,-0.9277954,-0.23834229,2.078125,-0.296875,0.390625
1664627494411,0.23168945,-0.9295044,-0.24737549,-0.265625,-0.328125,0.0625
1664627494441,0.21801758,-0.9246216,-0.25152588,0.75,-0.015625,-0.140625
1664627494487,0.22216797,-0.92559814,-0.24151611,0.609375,-0.546875,0.546875
1664627494531,0.2277832,-0.93096924,-0.24786377,0.359375,0.09375,-0.203125
1664627494565,0.22583008,-0.92852783,-0.23614502,0.640625,-0.3125,0.40625
1664627494608,0.22192383,-0.9338989,-0.24395752,0.34375,-0.40625,0.3125
1664627494666,0.22021484,-0.93292236,-0.2420044,0.265625,0.03125,-0.09375
1664627494680,0.22338867,-0.92974854,-0.25128174,0.15625,-0.484375,-0.0625
1664627494729,0.23266602,-0.9273071,-0.23834229,0.734375,-0.390625,0.09375
1664627494757,0.22802734,-0.9312134,-0.23516846,0.421875,-0.78125,-0.03125
1664627494800,0.22998047,-0.9336548,-0.24517822,-0.125,-0.703125,-0.03125
1664627494865,0.22460938,-0.92144775,-0.24493408,0.421875,-0.78125,0.1875
1664627494879,0.2163086,-0.92681885,-0.2312622,-1.296875,0.234375,-0.140625
1664627494950,0.21704102,-0.9338989,-0.23638916,2.578125,-0.390625,1.0
1664627494966,0.23657227,-0.9209595,-0.24957275,-2.484375,0.578125,-0.65625
1664627495000,0.23071289,-0.9351196,-0.2300415,-0.125,-0.5,-0.046875
1664627495042,0.21948242,-0.93170166,-0.22686768,0.71875,-0.953125,0.546875
1664627495071,0.23144531,-0.9336548,-0.2312622,-0.734375,-0.140625,-0.21875
1664627495116,0.22167969,-0.9378052,-0.23712158,0.421875,-0.28125,0.296875
1664627495161,0.23388672,-0.9314575,-0.22442627,0.140625,-0.03125,0.296875
1664627495191,0.22827148,-0.93292236,-0.23883057,-0.328125,-0.078125,0.09375
1664627495237,0.21875,-0.93463135,-0.2288208,0.859375,0.078125,0.140625
1664627495281,0.22705078,-0.92852783,-0.22906494,0.421875,-0.34375,0.078125
1664627495311,0.22021484,-0.9378052,-0.23297119,0.53125,0.40625,-0.09375
1664627495358,0.22827148,-0.9319458,-0.23492432,0.4375,0.125,0.125
1664627495416,0.22436523,-0.92974854,-0.23248291,0.46875,-0.171875,0.109375
1664627495432,0.22290039,-0.9295044,-0.23101807,0.421875,-0.109375,0.109375
1664627495491,0.22265625,-0.92926025,-0.23687744,0.34375,-0.25,0.359375
1664627495505,0.22705078,-0.93927,-0.23443604,-0.75,0.078125,0.0625
1664627495567,0.22558594,-0.9324341,-0.22564697,1.09375,-0.328125,-0.265625
1664627495603,0.2241211,-0.93878174,-0.23883057,0.578125,0.1875,0.28125
1664627495627,0.22851562,-0.93292236,-0.2432251,-1.390625,0.34375,-0.75
1664627495677,0.21069336,-0.93634033,-0.21417236,1.46875,-0.609375,0.328125
1664627495717,0.2253418,-0.9351196,-0.222229,0.5625,-0.359375,0.203125
1664627495746,0.21777344,-0.92852783,-0.22808838,0.6875,0.421875,0.03125
1664627495793,0.22631836,-0.9331665,-0.2354126,2.734375,0.03125,0.8125
1664627495822,0.22998047,-0.9356079,-0.22589111,2.125,0.40625,-0.421875
1664627495865,0.22485352,-0.9368286,-0.22589111,1.140625,0.0625,0.0
1664627495910,0.22265625,-0.93634033,-0.23297119,1.984375,0.0,0.0625
1664627495940,0.22485352,-0.9331665,-0.23590088,0.921875,0.0,-0.09375
1664627495986,0.22875977,-0.9368286,-0.23443604,0.5,0.28125,-0.28125
1664627496047,0.22558594,-0.9312134,-0.2420044,0.3125,-0.28125,0.171875
1664627496061,0.22290039,-0.92852783,-0.23565674,-0.21875,-0.671875,0.171875
1664627496120,0.21948242,-0.93096924,-0.2263794,0.546875,-0.328125,0.1875
1664627496151,0.22802734,-0.93414307,-0.24371338,0.46875,0.109375,-0.140625
1664627496180,0.23706055,-0.9397583,-0.24908447,-0.40625,0.078125,-0.328125
1664627496257,0.22192383,-0.93096924,-0.21929932,0.8125,-0.171875,-0.546875
1664627496266,0.2290039,-0.94073486,-0.24273682,-0.03125,-0.140625,0.453125
1664627496305,0.23461914,-0.93292236,-0.2444458,-3.3125,0.03125,-1.53125
1664627496345,0.2121582,-0.9338989,-0.2185669,1.28125,-0.140625,-0.28125
1664627496375,0.22045898,-0.9368286,-0.2288208,-0.796875,-0.25,-0.15625
1664627496419,0.22705078,-0.9265747,-0.22930908,-0.328125,0.203125,-0.359375
1664627496465,0.22290039,-0.9356079,-0.2312622,1.171875,-0.71875,-0.015625
1664627496496,0.22021484,-0.93878174,-0.22125244,0.140625,-0.03125,-0.4375
1664627496556,0.21948242,-0.94195557,-0.22515869,0.25,-0.53125,0.21875
1664627496574,0.2163086,-0.9348755,-0.22125244,0.453125,-0.25,0.046875
1664627496631,0.22265625,-0.9397583,-0.2234497,0.90625,-0.09375,0.015625
1664627496663,0.21289062,-0.9385376,-0.23590088,-0.15625,-0.515625,0.171875
1664627496693,0.22949219,-0.93756104,-0.22833252,0.671875,-0.640625,0.03125
1664627496751,0.22241211,-0.9348755,-0.22686768,0.34375,-0.25,0.171875
1664627496780,0.22802734,-0.93878174,-0.2354126,0.390625,-0.328125,0.078125
1664627496810,0.22314453,-0.93756104,-0.22418213,0.6875,-0.4375,0.234375
1664627496858,0.22070312,-0.9302368,-0.21514893,-1.671875,0.03125,-0.28125
1664627496885,0.21777344,-0.9434204,-0.21832275,3.046875,-0.453125,0.796875
1664627496931,0.2319336,-0.9314575,-0.23394775,-2.78125,0.40625,-0.828125
1664627496976,0.2175293,-0.9434204,-0.20977783,0.34375,-0.5,0.140625
1664627497005,0.21948242,-0.9299927,-0.21417236,1.09375,-0.84375,0.734375
1664627497051,0.22167969,-0.93829346,-0.21661377,-0.140625,-0.921875,-0.15625
1664627497111,0.21899414,-0.940979,-0.21392822,0.9375,-0.5625,0.046875
1664627497125,0.22265625,-0.94122314,-0.20172119,0.484375,-0.484375,-0.046875
1664627497190,0.2199707,-0.93218994,-0.2263794,-0.046875,-0.46875,-0.5
1664627497217,0.22070312,-0.93292236,-0.21759033,0.75,-0.140625,0.140625
1664627497248,0.21704102,-0.94488525,-0.21124268,0.734375,-0.40625,-0.0625
1664627497307,0.21704102,-0.9434204,-0.21270752,0.1875,-0.34375,-0.078125
1664627497322,0.2211914,-0.9404907,-0.21514893,0.78125,-0.34375,-0.1875
1664627497366,0.22387695,-0.9404907,-0.2131958,0.40625,-0.515625,0.046875
1664627497412,0.2211914,-0.9378052,-0.21661377,0.59375,-0.40625,-0.046875
1664627497439,0.21679688,-0.93829346,-0.21417236,0.359375,-0.484375,-0.1875
1664627497517,0.22241211,-0.9404907,-0.22198486,0.984375,-0.109375,0.25
1664627497535,0.22460938,-0.9368286,-0.21124268,-1.21875,0.359375,-0.53125
1664627497562,0.20239258,-0.9522095,-0.2053833,3.296875,-0.609375,0.53125
1664627497606,0.22558594,-0.94122314,-0.22515869,-2.109375,0.640625,-0.71875
1664627497637,0.21435547,-0.9390259,-0.20709229,-0.546875,-0.25,-0.296875
1664627497682,0.2163086,-0.9404907,-0.20611572,1.59375,-0.59375,0.390625
1664627497740,0.22436523,-0.9404907,-0.20684814,0.21875,-0.078125,0.125
1664627497756,0.21386719,-0.94488525,-0.22027588,0.796875,-0.109375,0.34375
1664627497818,0.22143555,-0.9397583,-0.21392822,0.703125,0.09375,0.390625
1664627497847,0.2163086,-0.9456177,-0.22052002,0.328125,0.078125,0.296875
1664627497879,0.21459961,-0.942688,-0.2078247,1.34375,-0.171875,0.234375
1664627497922,0.2175293,-0.94244385,-0.21490479,0.71875,-0.296875,0.25
1664627497967,0.21606445,-0.9456177,-0.21466064,0.640625,0.34375,0.09375
1664627497996,0.21801758,-0.93951416,-0.2144165,0.609375,0.078125,0.09375
1664627498071,0.21923828,-0.93878174,-0.21807861,0.6875,-0.265625,0.078125
1664627498076,0.22192383,-0.93536377,-0.2156372,1.125,0.078125,0.34375
1664627498116,0.22241211,-0.9402466,-0.21417236,1.515625,0.28125,0.390625
1664627498160,0.21679688,-0.94610596,-0.22027588,1.59375,-0.046875,0.703125
1664627498190,0.22827148,-0.9324341,-0.21002197,0.1875,0.765625,-0.296875
1664627498240,0.21582031,-0.9468384,-0.21661377,3.734375,0.265625,0.71875
1664627498297,0.22387695,-0.9324341,-0.22930908,-0.953125,0.71875,-0.640625
1664627498312,0.21801758,-0.93536377,-0.21246338,1.125,-0.125,0.078125
1664627498370,0.22167969,-0.94366455,-0.21051025,1.921875,-0.21875,0.765625
1664627498385,0.22753906,-0.9312134,-0.22027588,0.796875,0.171875,0.0625
1664627498447,0.22045898,-0.93292236,-0.22442627,2.390625,-0.421875,0.78125
1664627498477,0.22436523,-0.93170166,-0.21783447,2.34375,0.03125,0.53125
1664627498508,0.22436523,-0.94244385,-0.2276001,1.40625,-0.234375,0.484375
1664627498553,0.22290039,-0.93756104,-0.22735596,2.109375,-0.015625,0.6875
1664627498596,0.22558594,-0.928772,-0.2263794,1.6875,-0.640625,0.578125
1664627498627,0.2211914,-0.92926025,-0.23150635,1.84375,0.171875,0.390625
1664627498672,0.22924805,-0.93878174,-0.23638916,2.03125,-0.1875,1.234375
1664627498749,0.2319336,-0.92974854,-0.2312622,1.59375,-0.53125,0.390625
1664627498755,0.22338867,-0.92974854,-0.23736572,0.875,-0.28125,0.390625
1664627498823,0.23242188,-0.9265747,-0.2468872,1.5625,-0.234375,0.078125
1664627498828,0.22851562,-0.93634033,-0.23883057,0.34375,-0.28125,0.28125
1664627498865,0.23730469,-0.92266846,-0.2366333,-1.859375,0.203125,-0.984375
1664627498926,0.21850586,-0.9343872,-0.2276001,2.484375,-0.078125,0.15625
1664627498942,0.23461914,-0.9307251,-0.23760986,-3.15625,0.78125,-1.203125
1664627499000,0.21557617,-0.94000244,-0.21734619,-0.84375,-0.421875,-0.609375
1664627499032,0.21679688,-0.9417114,-0.22125244,0.484375,-0.46875,0.046875
1664627499059,0.22924805,-0.9348755,-0.22296143,-0.421875,0.109375,-0.5
1664627499106,0.22167969,-0.928772,-0.22589111,0.90625,-0.09375,0.203125
1664627499135,0.23095703,-0.93341064,-0.22296143,0.671875,-0.171875,0.15625
1664627499181,0.22509766,-0.9343872,-0.237854,0.21875,0.125,0.171875
1664627499228,0.21679688,-0.93170166,-0.22808838,0.71875,-0.125,0.21875
1664627499258,0.21972656,-0.9343872,-0.23028564,0.359375,-0.203125,0.3125
1664627499333,0.22583008,-0.9378052,-0.2354126,-0.03125,0.171875,-0.125
1664627499347,0.23095703,-0.9373169,-0.22711182,-0.515625,-0.078125,0.03125
1664627499377,0.22753906,-0.9343872,-0.22711182,-0.96875,-0.453125,0.09375
1664627499437,0.2277832,-0.92974854,-0.21807861,-0.828125,-0.234375,0.546875
1664627499454,0.22143555,-0.9402466,-0.21099854,-0.1875,0.296875,0.65625
1664627499513,0.21582031,-0.9348755,-0.21710205,-0.3125,0.203125,0.453125
1664627499542,0.22558594,-0.9402466,-0.2300415,-1.234375,0.15625,0.015625
1664627499573,0.22363281,-0.9338989,-0.20367432,1.40625,-0.3125,-0.21875
1664627499631,0.23510742,-0.9451294,-0.2300415,-0.15625,-0.046875,0.140625
1664627499664,0.22949219,-0.9348755,-0.22979736,-1.796875,0.515625,-0.84375
1664627499695,0.21655273,-0.93096924,-0.20489502,1.640625,-0.25,0.765625
1664627499737,0.22460938,-0.94195557,-0.20806885,-0.015625,-0.25,0.109375
1664627499783,0.22167969,-0.940979,-0.21636963,0.21875,0.65625,-0.203125
1664627499815,0.22021484,-0.9378052,-0.22198486,1.5625,-0.03125,0.203125
1664627499856,0.2277832,-0.94415283,-0.22027588,1.4375,0.515625,0.03125
1664627499887,0.23095703,-0.93829346,-0.21710205,0.875,0.1875,0.296875
1664627499931,0.22070312,-0.9378052,-0.21807861,0.875,-0.03125,0.21875
1664627499992,0.22460938,-0.93878174,-0.21539307,0.234375,0.0625,0.25
1664627500007,0.22949219,-0.93707275,-0.21783447,0.578125,0.234375,-0.09375
1664627500080,0.22045898,-0.93414307,-0.21148682,0.71875,-0.046875,0.109375
1664627500097,0.2265625,-0.9336548,-0.22125244,0.484375,-0.359375,0.125
1664627500127,0.21728516,-0.9417114,-0.21490479,1.046875,-0.171875,0.125
1664627500187,0.21875,-0.9380493,-0.222229,0.9375,0.203125,0.046875
1664627500202,0.2211914,-0.93756104,-0.21929932,1.625,-0.109375,0.1875
1664627500247,0.22631836,-0.9307251,-0.2041626,1.40625,0.84375,-0.375
1664627500291,0.20996094,-0.95440674,-0.22125244,4.921875,0.21875,0.6875
1664627500321,0.23071289,-0.9299927,-0.23175049,0.015625,1.171875,-0.671875
1664627500366,0.22509766,-0.94000244,-0.22711182,1.953125,0.140625,0.234375
1664627500414,0.21704102,-0.9404907,-0.22247314,2.671875,0.109375,0.59375
1664627500445,0.22167969,-0.93292236,-0.23370361,0.734375,0.359375,-0.21875
1664627500487,0.22290039,-0.9326782,-0.23834229,2.640625,0.40625,0.453125
1664627500547,0.23242188,-0.92852783,-0.23614502,1.390625,-0.234375,-0.390625
1664627500561,0.21777344,-0.9429321,-0.23297119,1.015625,0.0625,-0.734375
1664627500626,0.21801758,-0.9273071,-0.23175049,1.65625,0.0625,-0.125
1664627500637,0.21606445,-0.93414307,-0.23468018,1.3125,-0.28125,-0.390625
1664627500702,0.21606445,-0.9397583,-0.24078369,1.046875,0.359375,-0.125
1664627500725,0.22583008,-0.9324341,-0.23809814,1.140625,0.078125,0.0625
1664627500755,0.21704102,-0.93756104,-0.24346924,0.828125,-0.28125,-0.171875
1664627500802,0.22045898,-0.9348755,-0.2354126,0.921875,-0.234375,0.25
1664627500847,0.21728516,-0.927063,-0.24615479,1.421875,0.09375,0.0
1664627500877,0.21313477,-0.9319458,-0.23712158,1.03125,-0.40625,-0.125
1664627500919,0.22045898,-0.92388916,-0.24542236,-1.3125,-0.03125,-0.375
1664627500951,0.20996094,-0.93341064,-0.23272705,2.34375,-0.1875,0.265625
1664627500996,0.2290039,-0.9299927,-0.25250244,-1.9375,0.84375,-0.390625
1664627501070,0.21484375,-0.9380493,-0.23858643,-0.21875,-0.6875,-0.171875
1664627501075,0.21704102,-0.9212036,-0.23077393,0.71875,0.0,0.203125
1664627501118,0.22265625,-0.93048096,-0.23590088,-0.46875,-0.34375,-0.125
1664627501176,0.21289062,-0.92974854,-0.23614502,0.875,-0.375,0.140625
1664627501190,0.22094727,-0.9307251,-0.2341919,0.3125,-0.5,0.140625
1664627501250,0.2211914,-0.93756104,-0.25177002,-0.046875,-0.265625,0.125
1664627501280,0.21020508,-0.9324341,-0.2263794,0.203125,-0.34375,0.140625
1664627501311,0.21875,-0.94000244,-0.2312622,0.46875,-0.4375,0.109375
1664627501387,0.22314453,-0.9336548,-0.23443604,0.078125,-0.25,-0.015625
1664627501393,0.22167969,-0.93292236,-0.24493408,-0.3125,-0.546875,0.03125
1664627501434,0.22485352,-0.93414307,-0.23223877,-0.28125,-0.40625,0.09375
1664627501508,0.21704102,-0.93536377,-0.23614502,-0.328125,-0.59375,0.15625
1664627501511,0.2175293,-0.9343872,-0.23175049,0.046875,-0.453125,0.234375
1664627501553,0.22094727,-0.9319458,-0.22686768,0.390625,-0.5,0.375
1664627501598,0.21923828,-0.9331665,-0.23077393,-2.15625,-0.1875,-0.53125
1664627501627,0.21118164,-0.93927,-0.21636963,2.5,-0.9375,0.28125
1664627501671,0.22753906,-0.93707275,-0.23858643,-2.5625,-0.0625,-0.203125
1664627501701,0.22045898,-0.94366455,-0.2288208,-1.90625,-0.59375,-0.921875
1664627501746,0.21044922,-0.93756104,-0.20928955,1.1875,-0.65625,0.5625
1664627501806,0.2199707,-0.93585205,-0.21466064,0.0,-0.703125,-0.015625
1664627501821,0.2121582,-0.93927,-0.21759033,0.0,-0.078125,-0.03125
1664627501898,0.22509766,-0.9343872,-0.22369385,0.75,-0.40625,0.1875
1664627501916,0.21972656,-0.9417114,-0.21832275,0.828125,0.0,-0.1875
1664627501941,0.2211914,-0.9402466,-0.21466064,0.5,0.03125,0.265625
1664627501986,0.21582031,-0.9356079,-0.21759033,0.640625,-0.328125,0.140625
1664627502021,0.21289062,-0.9402466,-0.21807861,0.515625,-0.140625,-0.09375
1664627502061,0.21923828,-0.94073486,-0.2197876,0.484375,0.0,0.140625
1664627502106,0.22241211,-0.9378052,-0.22662354,0.328125,-0.015625,0.09375
1664627502138,0.21704102,-0.9414673,-0.22174072,0.296875,-0.21875,-0.015625
1664627502180,0.21289062,-0.9417114,-0.21783447,1.0,-0.078125,0.4375
1664627502226,0.2163086,-0.9326782,-0.22125244,0.640625,-0.09375,0.1875
1664627502255,0.22558594,-0.94073486,-0.22271729,-0.875,0.3125,-0.265625
1664627502317,0.21777344,-0.93756104,-0.20050049,2.125,-0.578125,-0.21875
1664627502346,0.22558594,-0.944397,-0.23101807,-0.59375,0.640625,0.078125
1664627502376,0.21899414,-0.9390259,-0.2210083,-1.28125,0.09375,-0.5625
1664627502435,0.20678711,-0.93927,-0.20098877,1.484375,-0.78125,0.359375
1664627502450,0.20825195,-0.940979,-0.2119751,-0.140625,-0.265625,-0.03125
1664627502512,0.21484375,-0.9331665,-0.21832275,0.578125,0.546875,0.0625
1664627502544,0.21777344,-0.93829346,-0.21612549,1.921875,0.125,0.625
1664627502572,0.21972656,-0.94073486,-0.22247314,1.890625,0.59375,0.046875
1664627502646,0.21582031,-0.9351196,-0.21270752,1.59375,0.71875,0.484375
1664627502660,0.21166992,-0.93634033,-0.21466064,1.765625,-0.0625,0.515625
1664627502693,0.21875,-0.9404907,-0.20855713,1.671875,0.609375,0.296875
1664627502735,0.21362305,-0.94000244,-0.22296143,0.921875,0.84375,0.359375
1664627502768,0.22241211,-0.93585205,-0.22711182,1.5,0.484375,0.25
1664627502812,0.21972656,-0.93756104,-0.22613525,1.203125,0.1875,0.234375
1664627502871,0.2175293,-0.93707275,-0.21636963,1.515625,0.359375,0.3125
1664627502886,0.2175293,-0.93634033,-0.22857666,1.4375,0.71875,0.25
1664627502946,0.21386719,-0.94122314,-0.23931885,0.578125,0.296875,0.25
1664627502981,0.2163086,-0.9312134,-0.21466064,1.9375,0.484375,0.015625
1664627503008,0.21923828,-0.9385376,-0.23175049,1.875,0.375,0.8125
1664627503066,0.22045898,-0.9368286,-0.24835205,-1.5,1.125,-0.921875
1664627503126,0.2211914,-0.9380493,-0.22515869,2.046875,-0.015625,0.75
1664627503130,0.21826172,-0.9324341,-0.22955322,0.46875,0.1875,0.28125
1664627503173,0.21704102,-0.927063,-0.23931885,0.546875,0.5,0.125
1664627503200,0.21826172,-0.9356079,-0.23883057,2.34375,-0.265625,0.515625
1664627503246,0.22314453,-0.93756104,-0.22467041,1.203125,0.484375,-0.046875
1664627503292,0.21826172,-0.93536377,-0.23687744,0.625,0.0625,0.359375
1664627503326,0.21484375,-0.9373169,-0.23443604,1.03125,-0.046875,0.109375
1664627503367,0.21923828,-0.9343872,-0.23638916,0.625,0.171875,0.15625
1664627503425,0.2241211,-0.9331665,-0.24224854,0.046875,-0.03125,0.09375
1664627503440,0.21850586,-0.93170166,-0.23492432,-0.109375,-0.421875,0.0
1664627503502,0.21435547,-0.9348755,-0.23931885,0.125,-0.46875,0.234375
1664627503517,0.21777344,-0.9351196,-0.23077393,0.28125,-0.15625,0.03125
1664627503577,0.21899414,-0.93463135,-0.24029541,-0.171875,-0.40625,0.0625
1664627503606,0.22192383,-0.9356079,-0.23956299,-1.28125,-0.28125,-0.109375
1664627503638,0.21899414,-0.93341064,-0.20880127,0.15625,-0.265625,-0.328125
1664627503684,0.22387695,-0.9331665,-0.24053955,-0.015625,-0.125,0.234375
1664627503727,0.21923828,-0.93829346,-0.24371338,-1.96875,0.109375,-1.0625
1664627503756,0.20800781,-0.9302368,-0.21636963,0.5625,-0.609375,0.515625
1664627503803,0.21484375,-0.93634033,-0.22442627,-0.390625,-0.28125,-0.03125
1664627503879,0.21484375,-0.9402466,-0.23101807,-0.875,-0.28125,-0.296875
1664627503889,0.21606445,-0.93878174,-0.22735596,1.21875,-0.578125,0.234375
1664627503951,0.22509766,-0.9421997,-0.21954346,0.359375,-0.140625,-0.15625
1664627503954,0.21923828,-0.94073486,-0.22320557,-0.671875,-0.484375,-0.203125
1664627503995,0.21801758,-0.9373169,-0.2144165,0.453125,-0.296875,-0.140625
1664627504056,0.21850586,-0.94000244,-0.21514893,0.1875,-0.25,-0.171875
1664627504072,0.21655273,-0.940979,-0.21490479,-0.078125,-0.25,-0.21875
1664627504130,0.21606445,-0.9402466,-0.21514893,-0.015625,-0.484375,-0.328125
1664627504166,0.2199707,-0.94195557,-0.22003174,0.265625,-0.390625,0.03125
1664627504191,0.2211914,-0.9385376,-0.21221924,0.109375,-0.5,0.15625
1664627504236,0.21850586,-0.942688,-0.21588135,0.25,-0.140625,-0.1875
1664627504266,0.21923828,-0.94781494,-0.222229,-0.109375,-0.25,0.15625
1664627504312,0.22363281,-0.9302368,-0.20587158,-0.28125,-0.078125,-0.515625
1664627504358,0.21533203,-0.94854736,-0.20977783,2.125,-0.34375,0.453125
1664627504386,0.22314453,-0.9356079,-0.21929932,-2.03125,0.28125,-0.984375
1664627504432,0.21459961,-0.94122314,-0.20343018,0.28125,-0.625,0.03125
1664627504477,0.20776367,-0.944397,-0.20733643,0.953125,-0.453125,0.484375
1664627504509,0.21582031,-0.9439087,-0.21685791,-0.09375,0.109375,-0.375
1664627504552,0.21289062,-0.93878174,-0.21466064,1.28125,0.046875,0.328125
1664627504581,0.22314453,-0.93829346,-0.20855713,1.0625,0.0625,0.390625
1664627504633,0.21289062,-0.93878174,-0.20831299,0.609375,0.078125,0.109375
1664627504685,0.21655273,-0.94537354,-0.21417236,1.28125,0.0625,0.34375
1664627504701,0.21484375,-0.93756104,-0.20928955,0.375,-0.28125,0.21875
1664627504760,0.21777344,-0.9483032,-0.21099854,0.875,0.21875,-0.1875
1664627504792,0.21582031,-0.94122314,-0.21490479,0.828125,-0.140625,0.21875
1664627504820,0.2109375,-0.9319458,-0.21099854,0.46875,-0.0625,0.0
1664627504866,0.21850586,-0.94317627,-0.206604,1.109375,-0.09375,0.328125
1664627504913,0.21142578,-0.93634033,-0.2156372,1.28125,-0.015625,0.421875
1664627504941,0.21948242,-0.93585205,-0.21514893,1.328125,0.0625,0.4375
1664627504985,0.22021484,-0.9404907,-0.22442627,-0.4375,0.65625,-0.171875
1664627505022,0.20654297,-0.940979,-0.20928955,3.09375,-0.53125,0.53125
1664627505062,0.22680664,-0.94000244,-0.22491455,-0.84375,0.890625,0.3125
1664627505106,0.21801758,-0.93829346,-0.22149658,-0.71875,0.3125,-0.375
1664627505137,0.19580078,-0.9487915,-0.2000122,2.0625,-0.109375,0.765625
1664627505212,0.21826172,-0.93829346,-0.21759033,0.140625,0.265625,0.546875
1664627505227,0.2133789,-0.9348755,-0.22149658,1.140625,0.546875,0.375
1664627505258,0.21459961,-0.93707275,-0.21832275,2.0625,0.40625,0.71875
1664627505316,0.2211914,-0.9451294,-0.22930908,1.125,0.515625,0.203125
1664627505330,0.21704102,-0.92559814,-0.21832275,0.890625,0.15625,0.34375
1664627505391,0.21679688,-0.94244385,-0.2156372,1.21875,0.171875,0.546875
1664627505421,0.22167969,-0.9421997,-0.21417236,1.015625,0.765625,0.28125
1664627505452,0.22338867,-0.9421997,-0.22003174,0.828125,0.34375,0.375
1664627505495,0.21923828,-0.9338989,-0.22442627,0.671875,-0.015625,0.1875
1664627505541,0.21875,-0.93585205,-0.22076416,0.453125,-0.09375,0.46875
1664627505573,0.22314453,-0.9414673,-0.22686768,0.78125,0.875,0.875
1664627505617,0.21582031,-0.93878174,-0.23492432,0.234375,1.375,0.5
1664627505677,0.2211914,-0.9378052,-0.2341919,0.5,0.625,0.40625
1664627505691,0.22070312,-0.92388916,-0.21026611,-0.375,0.59375,-0.8125
1664627505750,0.22070312,-0.94000244,-0.22198486,2.796875,0.046875,0.9375
1664627505768,0.2290039,-0.9302368,-0.23638916,-2.296875,0.765625,-0.890625
1664627505826,0.20996094,-0.9290161,-0.20953369,0.625,-0.25,0.265625
1664627505857,0.21948242,-0.94122314,-0.21685791,0.03125,-0.1875,0.03125
1664627505886,0.20825195,-0.92926025,-0.22198486,-0.203125,0.078125,-0.515625
1664627505950,0.21484375,-0.9385376,-0.22125244,2.0625,-0.296875,0.65625
1664627505977,0.22387695,-0.93878174,-0.21807861,0.71875,-0.125,0.078125
1664627506004,0.21606445,-0.9365845,-0.22515869,0.328125,-0.03125,0.234375
1664627506050,0.22167969,-0.9434204,-0.21661377,0.859375,0.078125,0.296875
1664627506082,0.21459961,-0.9390259,-0.21783447,0.578125,-0.21875,0.015625
1664627506125,0.21459961,-0.93341064,-0.22491455,0.3125,0.046875,0.0
1664627506171,0.21850586,-0.93585205,-0.21905518,0.359375,-0.3125,-0.28125
1664627506203,0.2163086,-0.94122314,-0.222229,0.1875,-0.515625,-0.09375
1664627506246,0.21582031,-0.9365845,-0.22271729,0.125,-0.75,-0.171875
1664627506306,0.22021484,-0.9417114,-0.21466064,0.125,-0.625,-0.484375
1664627506326,0.20654297,-0.93463135,-0.2197876,0.234375,-0.703125,-0.234375
1664627506381,0.21875,-0.9326782,-0.2197876,-1.75,-0.203125,-0.5
1664627506413,0.20410156,-0.9468384,-0.20367432,2.734375,-0.953125,0.296875
1664627506445,0.21875,-0.9336548,-0.21807861,-2.109375,0.078125,-0.5
1664627506516,0.21118164,-0.94488525,-0.22711182,-1.515625,-0.578125,-0.96875
1664627506521,0.20483398,-0.942688,-0.19439697,1.265625,-1.0,0.453125
1664627506579,0.21533203,-0.9456177,-0.19732666,0.1875,-0.5,0.15625
1664627506605,0.20874023,-0.94122314,-0.20904541,0.265625,-0.078125,-0.296875
1664627506635,0.21704102,-0.93756104,-0.2185669,1.015625,-0.28125,0.359375
1664627506683,0.21557617,-0.9404907,-0.21295166,1.046875,0.0,-0.125
1664627506726,0.20922852,-0.93951416,-0.20440674,0.515625,0.21875,0.359375
1664627506758,0.21459961,-0.9385376,-0.21343994,0.828125,-0.171875,0.34375
1664627506802,0.21582031,-0.93829346,-0.21002197,0.203125,-0.140625,-0.015625
1664627506835,0.21508789,-0.9429321,-0.21246338,0.71875,0.03125,-0.09375
1664627506876,0.21484375,-0.93951416,-0.21270752,0.4375,-0.1875,0.015625
1664627506935,0.2121582,-0.9299927,-0.20880127,0.234375,-0.15625,-0.03125
1664627506950,0.21020508,-0.9402466,-0.20855713,0.71875,-0.328125,0.15625
1664627507010,0.2163086,-0.9397583,-0.20635986,0.828125,0.125,-0.03125
1664627507052,0.2133789,-0.9458618,-0.22149658,0.640625,-0.015625,0.25
1664627507070,0.21826172,-0.94122314,-0.20733643,-0.75,0.265625,-0.453125
1664627507116,0.2055664,-0.944397,-0.2041626,2.40625,-0.46875,0.4375
1664627507160,0.22045898,-0.9295044,-0.21954346,-1.296875,0.671875,-0.78125
1664627507192,0.2084961,-0.9402466,-0.20513916,0.328125,-0.640625,0.15625
1664627507238,0.2133789,-0.94415283,-0.2078247,1.09375,-0.65625,0.3125
1664627507268,0.2175293,-0.9380493,-0.20758057,0.296875,-0.046875,-0.28125
1664627507313,0.20800781,-0.93829346,-0.21417236,1.5625,-0.1875,0.578125
1664627507358,0.22192383,-0.94415283,-0.20196533,1.75,0.5,0.5625
1664627507388,0.21826172,-0.94122314,-0.22076416,0.921875,0.359375,0.234375
1664627507433,0.2133789,-0.94000244,-0.2078247,1.84375,0.171875,0.171875
1664627507491,0.21069336,-0.94073486,-0.2156372,1.375,-0.28125,0.609375
1664627507506,0.2175293,-0.93756104,-0.21246338,0.953125,0.25,0.09375
1664627507565,0.21533203,-0.94122314,-0.21539307,1.015625,0.125,0.21875
1664627507581,0.21923828,-0.93414307,-0.21954346,1.03125,0.09375,0.40625
1664627507642,0.21533203,-0.9385376,-0.22271729,1.0625,-0.03125,0.3125
1664627507671,0.21289062,-0.9421997,-0.21783447,1.328125,0.171875,0.328125
1664627507703,0.20898438,-0.9378052,-0.21539307,1.71875,0.578125,0.390625
1664627507776,0.21850586,-0.93878174,-0.22930908,-0.71875,0.671875,0.6875
1664627507794,0.21606445,-0.9385376,-0.20758057,3.1875,0.109375,0.0
1664627507820,0.22290039,-0.9378052,-0.23175049,0.109375,0.40625,0.21875
1664627507865,0.21826172,-0.93414307,-0.2366333,-0.96875,0.4375,-0.9375
1664627507902,0.20947266,-0.93927,-0.20880127,2.109375,0.046875,0.765625
1664627507940,0.22290039,-0.93634033,-0.2210083,0.328125,-0.015625,0.53125
1664627507985,0.21264648,-0.93414307,-0.2288208,0.40625,0.078125,0.0
1664627508017,0.21899414,-0.9385376,-0.2276001,1.1875,-0.40625,0.625
1664627508077,0.22338867,-0.93463135,-0.22027588,0.71875,0.453125,0.046875
1664627508106,0.21728516,-0.93292236,-0.22076416,0.78125,0.015625,0.078125
1664627508135,0.22070312,-0.93170166,-0.22369385,1.234375,0.078125,0.375
1664627508197,0.22192383,-0.93292236,-0.2210083,0.765625,0.25,0.21875
1664627508228,0.21850586,-0.940979,-0.22857666,0.28125,-0.09375,0.125
1664627508256,0.21679688,-0.93096924,-0.22857666,0.21875,-0.390625,0.1875
1664627508301,0.2175293,-0.9343872,-0.22003174,0.40625,-0.21875,0.21875
1664627508334,0.21923828,-0.93707275,-0.22076416,1.015625,0.109375,-0.046875
1664627508377,0.21606445,-0.93341064,-0.22442627,0.34375,-0.171875,0.109375
1664627508421,0.22192383,-0.942688,-0.22808838,-1.796875,0.015625,-0.328125
1664627508453,0.20800781,-0.93829346,-0.2053833,2.015625,-0.453125,0.265625
1664627508497,0.22338867,-0.93585205,-0.2341919,-1.578125,0.140625,-0.09375
1664627508559,0.21411133,-0.9468384,-0.22686768,-1.171875,-0.25,-0.734375
1664627508573,0.21582031,-0.9360962,-0.2041626,0.671875,-0.328125,0.375
1664627508632,0.22045898,-0.9378052,-0.21783447,-0.4375,-0.390625,-0.234375
1664627508647,0.2084961,-0.92926025,-0.22003174,-0.21875,-0.015625,-0.40625
1664627508706,0.2163086,-0.9458618,-0.22149658,1.53125,-0.671875,0.609375
1664627508735,0.2211914,-0.94244385,-0.21539307,0.421875,-0.1875,-0.34375
1664627508765,0.21875,-0.9397583,-0.21368408,0.03125,-0.3125,0.015625
1664627508827,0.21484375,-0.9390259,-0.21685791,0.90625,-0.203125,0.0625
1664627508859,0.22290039,-0.94244385,-0.21148682,0.296875,-0.4375,-0.03125
1664627508888,0.22363281,-0.94415283,-0.21466064,-0.046875,-0.21875,-0.140625
1664627508930,0.21923828,-0.9360962,-0.2119751,-0.0625,-0.546875,-0.171875
1664627509007,0.21899414,-0.9397583,-0.21051025,-0.1875,-0.484375,0.046875
1664627509011,0.21801758,-0.9390259,-0.21685791,0.375,-0.09375,0.03125
1664627509081,0.2211914,-0.94122314,-0.2107544,0.515625,-0.53125,-0.078125
1664627509086,0.2175293,-0.9390259,-0.22003174,-1.859375,0.03125,-0.671875
1664627509127,0.20678711,-0.9456177,-0.19610596,2.9375,-0.890625,0.296875
1664627509203,0.2175293,-0.93878174,-0.2185669,-1.90625,0.25,-0.234375
1664627509208,0.21435547,-0.94610596,-0.20928955,-1.75,-0.3125,-1.109375
1664627509261,0.20654297,-0.9429321,-0.18560791,1.28125,-0.671875,0.390625
1664627509290,0.21679688,-0.93707275,-0.19854736,0.453125,-0.46875,-0.03125
1664627509322,0.21044922,-0.94122314,-0.20611572,0.328125,0.109375,-0.171875
1664627509367,0.21020508,-0.94195557,-0.20611572,1.25,-0.171875,0.3125
1664627509397,0.21484375,-0.9434204,-0.20733643,1.03125,0.296875,-0.296875
1664627509445,0.21704102,-0.9385376,-0.19976807,0.53125,0.140625,0.234375
1664627509488,0.2121582,-0.9451294,-0.2078247,0.84375,-0.171875,0.015625
1664627509518,0.21459961,-0.9468384,-0.20758057,0.515625,0.0,0.078125
1664627509561,0.21313477,-0.9404907,-0.21295166,0.765625,0.125,0.109375
1664627509606,0.21411133,-0.9475708,-0.20587158,0.453125,-0.21875,0.140625
1664627509637,0.21362305,-0.93927,-0.20074463,0.265625,-0.390625,-0.03125
1664627509685,0.21459961,-0.9487915,-0.20513916,0.484375,0.0,0.21875
1664627509740,0.2163086,-0.93756104,-0.21002197,0.78125,-0.359375,0.21875
1664627509755,0.21386719,-0.9324341,-0.20172119,-0.953125,0.453125,-0.59375
1664627509815,0.2019043,-0.95391846,-0.19854736,3.5,-0.359375,0.359375
1664627509830,0.22070312,-0.94122314,-0.20269775,-0.9375,0.921875,-0.453125
1664627509893,0.20678711,-0.9534302,-0.19805908,1.0625,1.140625,0.03125
1664627509921,0.20751953,-0.940979,-0.2041626,1.90625,0.375,0.984375
1664627509950,0.22045898,-0.93878174,-0.21002197,1.421875,0.03125,-0.171875
1664627509995,0.20874023,-0.93878174,-0.21539307,1.9375,0.640625,-0.0625
1664627510047,0.20800781,-0.9397583,-0.21905518,2.25,0.0,0.421875
1664627510069,0.21655273,-0.94488525,-0.22125244,1.609375,0.453125,-0.046875
1664627510117,0.21191406,-0.93756104,-0.21368408,2.046875,0.5,0.375
1664627510147,0.21875,-0.9365845,-0.21881104,1.78125,0.5,0.625
1664627510193,0.21704102,-0.94537354,-0.22467041,1.171875,0.828125,0.0
1664627510267,0.2163086,-0.93951416,-0.22076416,1.0,-0.328125,0.34375
1664627510270,0.21435547,-0.9404907,-0.22003174,1.421875,-0.21875,0.421875
1664627510344,0.21313477,-0.93707275,-0.22906494,0.859375,0.015625,0.625
1664627510355,0.21850586,-0.9385376,-0.22271729,1.0625,0.125,0.328125
1664627510386,0.21264648,-0.9373169,-0.22735596,1.1875,0.015625,0.359375
1664627510447,0.21850586,-0.93096924,-0.22393799,-0.9375,0.421875,-0.015625
1664627510460,0.21289062,-0.9439087,-0.21612549,3.25,-0.03125,1.046875
1664627510522,0.22070312,-0.93536377,-0.22833252,-1.84375,0.328125,-0.65625
1664627510551,0.20751953,-0.9351196,-0.21270752,-0.15625,-0.375,-0.015625
1664627510581,0.21777344,-0.9378052,-0.21417236,0.578125,-0.046875,0.515625
1664627510626,0.2163086,-0.9397583,-0.22393799,-0.25,-0.28125,-0.046875
1664627510675,0.21118164,-0.9338989,-0.21636963,1.109375,-0.25,0.40625
1664627510700,0.22583008,-0.9373169,-0.22589111,0.9375,-0.328125,0.53125
1664627510745,0.21850586,-0.93829346,-0.22906494,0.625,0.078125,-0.203125
1664627510793,0.21362305,-0.9434204,-0.21270752,0.9375,-0.125,0.15625
1664627510820,0.21801758,-0.9365845,-0.22003174,0.453125,-0.21875,0.109375
1664627510865,0.21875,-0.9404907,-0.22613525,0.328125,0.234375,0.125
1664627510896,0.2199707,-0.9365845,-0.22052002,0.203125,-0.453125,0.0625
1664627510957,0.21508789,-0.94000244,-0.21954346,0.4375,-0.375,0.109375
1664627510989,0.2241211,-0.94073486,-0.22076416,0.40625,-0.171875,0.078125
1664627511015,0.21704102,-0.9368286,-0.22149658,-0.34375,-0.390625,-0.3125
1664627511078,0.21313477,-0.9343872,-0.22149658,-1.9375,0.1875,-0.4375
1664627511110,0.20678711,-0.9404907,-0.20391846,2.046875,-0.15625,0.265625
1664627511137,0.21923828,-0.94000244,-0.23272705,-1.0,-0.15625,0.1875
1664627511182,0.2175293,-0.94610596,-0.2197876,-1.734375,-0.171875,-1.234375
1664627511211,0.20800781,-0.942688,-0.19659424,0.765625,-0.8125,0.484375
1664627511258,0.21899414,-0.94366455,-0.20831299,0.0,-0.78125,-0.078125
1664627511302,0.21582031,-0.9360962,-0.22198486,-0.59375,-0.421875,-0.484375
1664627511334,0.20898438,-0.94073486,-0.21148682,1.375,-0.40625,0.203125
1664627511377,0.21850586,-0.93829346,-0.20611572,1.140625,0.109375,-0.328125
1664627511439,0.21606445,-0.940979,-0.21710205,-0.09375,-0.171875,0.078125
1664627511454,0.21655273,-0.9348755,-0.21466064,0.859375,-0.03125,0.0625
1664627511515,0.2121582,-0.9404907,-0.20855713,0.40625,-0.265625,0.0625
1664627511544,0.21411133,-0.94000244,-0.2144165,0.390625,-0.09375,0.03125
1664627511570,0.21386719,-0.9390259,-0.21343994,0.21875,-0.375,-0.1875
1664627511646,0.21435547,-0.9414673,-0.20269775,0.328125,-0.359375,-0.015625
1664627511651,0.21166992,-0.9451294,-0.21368408,0.515625,-0.1875,0.0625
1664627511705,0.20776367,-0.9368286,-0.20880127,0.546875,-0.40625,0.03125
1664627511736,0.21557617,-0.94195557,-0.2156372,-1.125,0.40625,-0.359375
1664627511766,0.19848633,-0.94415283,-0.19830322,2.609375,-0.5625,0.28125
1664627511812,0.21899414,-0.94000244,-0.2185669,-0.703125,0.4375,-0.28125
1664627511857,0.21728516,-0.94415283,-0.22198486,-1.671875,-0.109375,-0.9375
1664627511886,0.20410156,-0.9458618,-0.18951416,1.578125,-0.546875,0.359375
1664627511932,0.20996094,-0.94537354,-0.20220947,0.625,-0.375,0.15625
1664627511961,0.20483398,-0.9421997,-0.20855713,0.25,0.4375,0.046875
1664627512006,0.20581055,-0.93634033,-0.2144165,1.6875,-0.109375,0.5625
1664627512066,0.21655273,-0.9404907,-0.2107544,1.4375,0.328125,-0.0625
1664627512086,0.20996094,-0.9458618,-0.19781494,0.953125,0.5,0.21875
1664627512142,0.21020508,-0.94317627,-0.21466064,1.40625,-0.3125,0.5
1664627512171,0.21435547,-0.9404907,-0.20904541,0.515625,0.09375,0.21875
1664627512206,0.21386719,-0.9385376,-0.21392822,0.59375,0.125,0.15625
1664627512245,0.21582031,-0.93951416,-0.21051025,0.5625,-0.171875,0.140625
1664627512292,0.21069336,-0.9380493,-0.2119751,0.46875,-0.390625,0.21875
1664627512323,0.20922852,-0.93707275,-0.21148682,0.984375,0.28125,0.28125
1664627512365,0.20922852,-0.93536377,-0.21368408,1.5625,0.40625,0.421875
1664627512396,0.21850586,-0.93536377,-0.20880127,-0.171875,0.75,-0.1875
1664627512440,0.20654297,-0.944397,-0.20074463,3.515625,0.171875,0.484375
1664627512519,0.21289062,-0.9404907,-0.22174072,-1.140625,0.484375,-0.53125
1664627512526,0.21655273,-0.9378052,-0.2156372,-0.890625,0.015625,-0.28125
1664627512592,0.20922852,-0.94000244,-0.20831299,2.046875,-0.015625,0.71875
1664627512636,0.21606445,-0.94122314,-0.21173096,-0.015625,-0.140625,-0.078125
1664627512641,0.20385742,-0.9451294,-0.2144165,0.734375,0.140625,0.25
1664627512696,0.21435547,-0.9365845,-0.22003174,1.75,-0.234375,0.84375
1664627512716,0.2175293,-0.9390259,-0.21905518,0.5,-0.09375,0.21875
1664627512771,0.21264648,-0.9360962,-0.20977783,1.0,0.328125,0.328125
1664627512804,0.21264648,-0.944397,-0.2107544,0.953125,0.296875,0.6875
1664627512835,0.21655273,-0.93829346,-0.21368408,-0.1875,0.78125,0.390625
1664627512907,0.21728516,-0.940979,-0.22296143,0.0625,0.28125,0.5625
1664627512922,0.21704102,-0.93829346,-0.21148682,0.109375,-0.296875,0.53125
1664627512952,0.21606445,-0.93927,-0.21246338,0.3125,-0.21875,0.53125
1664627512998,0.21679688,-0.94244385,-0.2197876,0.90625,0.421875,0.234375
1664627513027,0.21582031,-0.94366455,-0.22906494,1.203125,0.125,0.34375
1664627513071,0.22460938,-0.92926025,-0.21270752,-0.640625,0.125,-0.296875
1664627513116,0.21191406,-0.94195557,-0.2131958,3.078125,-0.5625,1.109375
1664627513150,0.22680664,-0.93756104,-0.2300415,-2.453125,0.625,-0.875
1664627513193,0.20800781,-0.9446411,-0.20562744,0.078125,-0.5,0.15625
1664627513250,0.21289062,-0.9319458,-0.1987915,0.21875,-0.390625,0.03125
1664627513267,0.21948242,-0.94073486,-0.21490479,-0.6875,-0.28125,-0.453125
1664627513326,0.20996094,-0.9421997,-0.20904541,1.515625,-0.28125,0.34375
1664627513357,0.21875,-0.94537354,-0.20758057,1.015625,-0.3125,0.3125
1664627513389,0.2199707,-0.94317627,-0.22076416,0.125,-0.015625,-0.296875
1664627513431,0.2133789,-0.942688,-0.21148682,0.640625,-0.21875,0.15625
1664627513462,0.21875,-0.94317627,-0.21221924,0.53125,-0.46875,-0.203125
1664627513505,0.21264648,-0.940979,-0.21295166,0.53125,-0.078125,-0.046875
1664627513558,0.22143555,-0.94122314,-0.21295166,0.375,-0.328125,-0.015625
1664627513580,0.21411133,-0.9385376,-0.21392822,0.140625,-0.484375,-0.0625
1664627513626,0.2175293,-0.93756104,-0.20367432,0.203125,-0.375,-0.046875
1664627513673,0.22045898,-0.93951416,-0.21099854,-0.0625,-0.34375,-0.21875
1664627513700,0.21557617,-0.94732666,-0.21392822,-0.71875,-0.109375,-0.234375
1664627513745,0.21362305,-0.9373169,-0.19171143,0.3125,-0.40625,-0.53125
1664627513775,0.2133789,-0.94732666,-0.22027588,1.90625,-0.359375,0.4375
1664627513838,0.22607422,-0.9380493,-0.21368408,-2.1875,0.328125,-1.203125
1664627513865,0.20996094,-0.9378052,-0.19781494,0.265625,-0.5625,-0.09375
1664627513895,0.21044922,-0.94244385,-0.19805908,1.03125,-0.453125,0.5
1664627513957,0.21289062,-0.942688,-0.2041626,-0.015625,0.140625,-0.15625
1664627513986,0.21533203,-0.93951416,-0.20635986,1.28125,-0.328125,0.09375
1664627514016,0.2163086,-0.9414673,-0.20367432,1.078125,0.28125,0.15625
1664627514060,0.21240234,-0.94537354,-0.20953369,0.4375,0.1875,-0.15625
1664627514141,0.21020508,-0.9434204,-0.20489502,1.203125,0.0,0.140625
1664627514150,0.21606445,-0.9390259,-0.20513916,0.515625,-0.4375,0.015625
1664627514210,0.20825195,-0.942688,-0.20367432,0.765625,0.578125,0.015625
1664627514213,0.20800781,-0.940979,-0.21124268,0.515625,0.03125,-0.015625
1664627514256,0.21435547,-0.94195557,-0.2107544,0.671875,-0.0625,0.171875
1664627514317,0.2109375,-0.9468384,-0.20074463,0.734375,-0.234375,0.046875
1664627514331,0.2163086,-0.94415283,-0.20391846,0.640625,0.015625,0.265625
1664627514391,0.21655273,-0.94781494,-0.21343994,0.15625,-0.1875,0.078125
1664627514422,0.2175293,-0.94073486,-0.19049072,0.03125,0.171875,-0.78125
1664627514451,0.20727539,-0.9529419,-0.20025635,3.0,0.109375,0.890625
1664627514510,0.21411133,-0.94244385,-0.21954346,-1.3125,1.09375,-0.484375
1664627514525,0.20898438,-0.9495239,-0.20098877,0.921875,0.09375,0.609375
1664627514585,0.20532227,-0.9414673,-0.20025635,1.765625,0.296875,0.609375
1664627514617,0.21362305,-0.94488525,-0.20904541,0.203125,0.71875,0.09375
1664627514646,0.20922852,-0.93463135,-0.21099854,1.875,0.46875,0.625
1664627514690,0.2163086,-0.9434204,-0.20880127,1.03125,0.015625,0.328125
1664627514736,0.2163086,-0.94610596,-0.21343994,0.546875,0.296875,-0.03125
1664627514765,0.21289062,-0.9314575,-0.20806885,1.4375,0.34375,0.953125
1664627514813,0.21582031,-0.942688,-0.2144165,1.203125,-0.078125,0.4375
1664627514871,0.21801758,-0.9429321,-0.21661377,0.65625,0.5,0.28125
1664627514891,0.21411133,-0.94244385,-0.21661377,0.78125,-0.390625,0.46875
1664627514947,0.22045898,-0.9397583,-0.21759033,1.0,-0.09375,0.359375
1664627514964,0.2175293,-0.9417114,-0.21368408,0.8125,-0.015625,0.5625
1664627515022,0.21313477,-0.9390259,-0.21905518,1.171875,0.171875,0.1875
1664627515050,0.20800781,-0.9373169,-0.21929932,1.0,-0.03125,0.609375
1664627515087,0.21606445,-0.9348755,-0.20587158,-1.453125,0.078125,-0.5
1664627515126,0.2175293,-0.94317627,-0.20513916,2.671875,0.046875,0.859375
1664627515172,0.2265625,-0.93463135,-0.22784424,-2.53125,0.40625,-0.734375
1664627515202,0.21362305,-0.94000244,-0.20025635,-0.125,-0.34375,0.125
1664627515247,0.21191406,-0.93927,-0.20562744,0.34375,-0.078125,0.296875
1664627515277,0.21850586,-0.92974854,-0.20880127,-0.171875,-0.28125,-0.3125
1664627515322,0.21264648,-0.93463135,-0.20611572,1.40625,-0.140625,0.40625
1664627515399,0.22436523,-0.9348755,-0.21270752,0.734375,-0.046875,0.234375
1664627515406,0.21240234,-0.9373169,-0.21246338,0.6875,0.375,-0.296875
1664627515473,0.21313477,-0.93951416,-0.21173096,1.21875,0.125,0.296875
1664627515489,0.21704102,-0.9470825,-0.20684814,0.875,-0.25,0.125
1664627515517,0.22045898,-0.94317627,-0.21051025,0.40625,0.265625,-0.171875
1664627515578,0.21582031,-0.940979,-0.21514893,0.484375,-0.359375,-0.046875
1664627515592,0.21899414,-0.93829346,-0.21295166,0.5625,-0.4375,0.1875
1664627515668,0.21606445,-0.93707275,-0.21539307,0.578125,-0.390625,0.0
1664627515680,0.2199707,-0.9439087,-0.22174072,0.5625,-0.375,-0.140625
1664627515711,0.2109375,-0.95025635,-0.21270752,-0.234375,-0.359375,-0.109375
1664627515758,0.2055664,-0.93951416,-0.1975708,-0.484375,0.125,-0.609375
1664627515801,0.21118164,-0.9505005,-0.21466064,2.515625,-0.53125,0.6875
1664627515830,0.2319336,-0.9385376,-0.22174072,-2.5625,0.234375,-1.3125
1664627515875,0.20996094,-0.9402466,-0.19781494,0.28125,-0.59375,-0.3125
1664627515952,0.20532227,-0.94488525,-0.19561768,1.015625,-0.546875,0.4375
1664627515957,0.21679688,-0.9456177,-0.20709229,-0.125,-0.4375,-0.15625
1664627515996,0.20996094,-0.9480591,-0.20831299,1.515625,-0.03125,-0.078125
1664627516025,0.21386719,-0.94366455,-0.20269775,1.390625,0.265625,0.046875
1664627516073,0.21704102,-0.9390259,-0.21539307,0.453125,0.078125,-0.0625
1664627516129,0.21362305,-0.93927,-0.20855713,1.015625,0.0,-0.0625
1664627516145,0.20947266,-0.94366455,-0.20367432,0.703125,-0.4375,-0.078125
1664627516205,0.21289062,-0.94659424,-0.20806885,0.671875,0.0,0.109375
1664627516237,0.21704102,-0.9414673,-0.2131958,0.390625,-0.53125,0.0
1664627516270,0.2055664,-0.94244385,-0.21270752,0.453125,-0.140625,-0.015625
1664627516313,0.20825195,-0.94122314,-0.20904541,0.734375,-0.125,0.296875
1664627516342,0.21191406,-0.9446411,-0.20758057,0.6875,-0.03125,0.125
1664627516387,0.21069336,-0.94244385,-0.21343994,0.84375,-0.03125,0.203125
1664627516434,0.22070312,-0.9326782,-0.20733643,-0.609375,0.671875,-0.671875
1664627516462,0.19799805,-0.9534302,-0.20880127,3.234375,-0.25,0.5625
1664627516507,0.2175293,-0.9351196,-0.21710205,-1.984375,0.53125,-0.65625
1664627516554,0.20605469,-0.93829346,-0.20196533,-0.5,-0.21875,-0.25
1664627516581,0.20654297,-0.94488525,-0.19781494,1.625,-0.484375,0.578125
1664627516627,0.20922852,-0.9439087,-0.21148682,-0.125,-0.21875,-0.03125
1664627516700,0.21191406,-0.93585205,-0.20928955,0.890625,0.203125,0.25
1664627516704,0.2097168,-0.9417114,-0.20855713,1.421875,0.375,0.46875
1664627516761,0.20336914,-0.9434204,-0.21954346,0.84375,0.34375,-0.03125
1664627516776,0.20703125,-0.93634033,-0.20928955,1.296875,0.03125,0.359375
1664627516836,0.20385742,-0.94122314,-0.20562744,0.953125,-0.25,0.21875
1664627516865,0.20922852,-0.94195557,-0.2041626,0.609375,0.453125,0.25
1664627516896,0.21166992,-0.9402466,-0.20196533,0.9375,0.140625,0.28125
1664627516941,0.20751953,-0.9446411,-0.20904541,1.0,0.15625,0.265625
1664627516988,0.2084961,-0.9456177,-0.21002197,0.90625,0.21875,0.375
1664627517019,0.2084961,-0.94073486,-0.20733643,1.09375,0.484375,0.40625
1664627517061,0.20751953,-0.9417114,-0.20367432,1.3125,0.9375,0.359375
1664627517091,0.21313477,-0.94244385,-0.22296143,-0.796875,0.875,0.21875
1664627517166,0.20092773,-0.94195557,-0.2029419,3.015625,0.34375,0.671875
1664627517182,0.21484375,-0.9365845,-0.2197876,-0.796875,0.46875,0.203125
1664627517211,0.22167969,-0.9360962,-0.22418213,-0.34375,0.328125,-0.28125
1664627517271,0.20507812,-0.9468384,-0.20904541,2.390625,0.109375,0.90625
1664627517303,0.21557617,-0.9365845,-0.20880127,0.90625,0.078125,0.359375
1664627517331,0.20703125,-0.93414307,-0.22052002,1.171875,0.546875,0.421875
1664627517396,0.21704102,-0.94073486,-0.22320557,1.9375,-0.359375,0.765625
1664627517420,0.21826172,-0.93585205,-0.2234497,0.8125,0.40625,0.15625
1664627517450,0.21240234,-0.9446411,-0.2156372,0.390625,0.09375,0.375
1664627517497,0.21166992,-0.9348755,-0.21905518,0.46875,-0.125,0.46875
1664627517526,0.21459961,-0.93585205,-0.22003174,0.515625,0.359375,0.140625
1664627517571,0.21850586,-0.93707275,-0.22198486,0.4375,-0.171875,0.09375
1664627517617,0.21240234,-0.93585205,-0.21905518,0.75,-0.125,0.390625
1664627517646,0.20898438,-0.9385376,-0.2210083,0.578125,-0.140625,0.515625
1664627517691,0.2211914,-0.93756104,-0.22540283,0.171875,-0.09375,0.140625
1664627517751,0.22265625,-0.9417114,-0.22271729,-0.203125,-0.25,0.234375
1664627517766,0.21826172,-0.9373169,-0.21221924,-0.671875,-0.0625,-0.515625
1664627517826,0.21191406,-0.9480591,-0.22149658,2.046875,-0.46875,0.71875
1664627517841,0.22460938,-0.9378052,-0.22052002,-2.453125,0.203125,-0.90625
1664627517907,0.20581055,-0.9451294,-0.20880127,-0.140625,-0.59375,0.359375
1664627517930,0.21899414,-0.93585205,-0.20855713,0.234375,-0.359375,0.21875
1664627517962,0.21655273,-0.94195557,-0.21392822,-0.140625,-0.328125,-0.515625
1664627518037,0.21191406,-0.9402466,-0.21759033,1.515625,-0.40625,0.203125
1664627518050,0.21533203,-0.9421997,-0.20440674,0.90625,-0.546875,0.28125
1664627518083,0.2097168,-0.94317627,-0.2144165,0.171875,-0.421875,-0.4375
1664627518125,0.2121582,-0.94244385,-0.20318604,0.65625,0.0625,-0.078125
1664627518155,0.21264648,-0.944397,-0.21099854,0.578125,-0.5625,0.03125
1664627518201,0.22045898,-0.9446411,-0.21026611,0.046875,-0.390625,-0.421875
1664627518248,0.21044922,-0.9385376,-0.20489502,0.375,-0.40625,-0.140625
1664627518275,0.21118164,-0.9429321,-0.21466064,0.421875,-0.3125,0.046875
1664627518323,0.21166992,-0.93414307,-0.21514893,1.09375,1.359375,0.828125
1664627518383,0.23339844,-0.9324341,-0.21099854,5.390625,2.421875,2.390625
1664627518398,0.20800781,-0.93414307,-0.21929932,0.796875,1.28125,0.359375
1664627518455,0.20019531,-0.9446411,-0.21710205,4.671875,0.28125,1.375
1664627518533,0.21655273,-0.9360962,-0.22979736,-0.421875,1.140625,0.4375
1664627518538,0.21850586,-0.9417114,-0.2288208,-0.5,0.78125,-0.359375
1664627518565,0.21020508,-0.9468384,-0.21539307,1.6875,-0.3125,0.765625
1664627518590,0.21264648,-0.92926025,-0.21612549,0.390625,-0.234375,0.265625
1664627518637,0.21362305,-0.9319458,-0.2234497,1.09375,0.46875,0.421875
1664627518682,0.21899414,-0.93634033,-0.22735596,2.15625,0.21875,0.5
1664627518712,0.21704102,-0.93634033,-0.23052979,1.390625,0.359375,0.140625
1664627518755,0.21704102,-0.93829346,-0.22393799,1.03125,0.234375,0.46875
1664627518801,0.21533203,-0.9331665,-0.22271729,1.765625,0.375,0.703125
1664627518834,0.22314453,-0.9380493,-0.22418213,1.375,0.265625,0.65625
1664627518875,0.22143555,-0.9338989,-0.23101807,0.859375,0.34375,0.34375
1664627518906,0.21850586,-0.9319458,-0.22735596,0.9375,-0.125,0.296875
1664627518955,0.22094727,-0.9336548,-0.2276001,0.4375,-0.34375,0.0
1664627519011,0.21362305,-0.9324341,-0.2300415,0.5,0.015625,-0.109375
1664627519025,0.21826172,-0.9417114,-0.23516846,-0.421875,-0.046875,-0.015625
1664627519086,0.2133789,-0.93463135,-0.21417236,0.765625,-0.25,-0.890625
1664627519116,0.21557617,-0.9429321,-0.2300415,1.65625,-0.234375,-0.140625
1664627519147,0.22021484,-0.93878174,-0.23297119,-1.5,1.109375,-1.359375
1664627519190,0.2133789,-0.93536377,-0.2156372,1.9375,0.25,-0.359375
1664627519269,0.20947266,-0.94000244,-0.21783447,1.0625,-0.25,-0.40625
1664627519273,0.20996094,-0.9319458,-0.22979736,0.109375,-0.15625,-0.65625
1664627519314,0.21264648,-0.9351196,-0.23809814,1.953125,-0.515625,-0.234375
1664627519342,0.21362305,-0.9336548,-0.2276001,1.171875,-0.890625,-0.8125
1664627519385,0.21606445,-0.94073486,-0.2312622,0.265625,-0.171875,-0.375
1664627519434,0.21069336,-0.93341064,-0.23345947,1.78125,0.015625,-0.140625
1664627519460,0.21191406,-0.9348755,-0.23516846,0.953125,-0.046875,0.21875
1664627519510,0.2084961,-0.9326782,-0.23712158,0.609375,-0.1875,0.125
1664627519569,0.21044922,-0.94122314,-0.22930908,0.90625,-0.34375,0.140625
1664627519582,0.20507812,-0.92926025,-0.23443604,0.734375,-0.78125,0.296875
1664627519642,0.2133789,-0.9378052,-0.2366333,0.078125,-0.5,0.203125
1664627519656,0.20703125,-0.93927,-0.23394775,1.25,-0.453125,0.34375
1664627519716,0.21704102,-0.92755127,-0.2276001,-1.390625,-0.234375,-0.140625
1664627519746,0.20483398,-0.9414673,-0.22271729,1.8125,-0.390625,1.0
1664627519776,0.2253418,-0.93536377,-0.2390747,-2.78125,0.171875,-0.25
1664627519821,0.21020508,-0.9397583,-0.22296143,-0.1875,-0.390625,-0.046875
1664627519865,0.20678711,-0.940979,-0.22027588,0.671875,-0.046875,0.65625
1664627519901,0.21508789,-0.9336548,-0.2341919,-0.671875,-0.359375,-0.265625
1664627519942,0.21191406,-0.9326782,-0.22198486,1.234375,-0.375,0.1875
1664627519986,0.21875,-0.9360962,-0.22955322,0.8125,-0.25,0.28125
1664627520017,0.21582031,-0.9373169,-0.23175049,0.03125,-0.234375,-0.1875
1664627520076,0.20678711,-0.93634033,-0.22515869,0.5,-0.15625,0.140625
1664627520168,0.2163086,-0.9414673,-0.22467041,0.609375,-0.421875,0.0625
1664627520181,0.2211914,-0.9351196,-0.22711182,0.375,-0.015625,-0.0625
1664627520186,0.21313477,-0.93829346,-0.22589111,-0.046875,-0.625,-0.25
1664627520212,0.21435547,-0.93707275,-0.22686768,0.375,-0.46875,0.15625
1664627520269,0.21289062,-0.9378052,-0.22515869,-0.0625,-0.296875,-0.21875
1664627520303,0.20922852,-0.944397,-0.22613525,-0.03125,-0.71875,0.25
1664627520331,0.21899414,-0.9378052,-0.21392822,-2.34375,-0.34375,-0.859375
1664627520378,0.20288086,-0.9492798,-0.20880127,2.359375,-0.65625,0.453125
1664627520405,0.22192383,-0.94000244,-0.22393799,-2.78125,0.0625,-0.625
1664627520452,0.20922852,-0.93878174,-0.21124268,-1.140625,-0.65625,-0.828125
1664627520526,0.20654297,-0.94537354,-0.20343018,0.984375,-0.421875,0.375
1664627520534,0.21459961,-0.9429321,-0.20758057,0.140625,-0.28125,0.109375
1664627520600,0.20996094,-0.94244385,-0.21051025,0.65625,-0.3125,-0.015625
1664627520617,0.21655273,-0.93951416,-0.21099854,0.765625,-0.03125,0.28125
1664627520648,0.21459961,-0.9429321,-0.22076416,0.578125,0.125,-0.296875
1664627520710,0.20947266,-0.9434204,-0.2107544,0.671875,0.046875,0.125
1664627520723,0.2133789,-0.9421997,-0.21734619,0.734375,-0.171875,0.25
1664627520782,0.20483398,-0.9451294,-0.21173096,0.609375,0.328125,0.25
1664627520810,0.2121582,-0.94073486,-0.21514893,0.859375,0.21875,0.25
1664627520840,0.21362305,-0.9397583,-0.21490479,0.796875,0.3125,0.484375
1664627520885,0.21533203,-0.9417114,-0.20977783,1.53125,0.484375,0.59375
1664627520932,0.21362305,-0.93585205,-0.20880127,1.296875,0.3125,0.734375
1664627520960,0.21801758,-0.93878174,-0.21734619,-0.78125,1.125,0.015625
1664627521006,0.20166016,-0.942688,-0.20098877,3.109375,-0.015625,0.71875
1664627521101,0.22485352,-0.9385376,-0.22491455,-0.6875,0.9375,-0.015625
1664627521111,0.21826172,-0.93707275,-0.22393799,-1.65625,0.359375,-0.609375
1664627521127,0.20703125,-0.93927,-0.19805908,1.671875,0.015625,0.5625
1664627521155,0.20678711,-0.94195557,-0.20806885,0.234375,-0.140625,0.171875
1664627521202,0.21142578,-0.9404907,-0.2185669,0.53125,0.453125,0.171875
1664627521261,0.20996094,-0.9492798,-0.21514893,1.890625,0.453125,0.640625
1664627521275,0.21899414,-0.94488525,-0.22125244,1.53125,0.671875,0.125
1664627521335,0.21508789,-0.93951416,-0.21026611,1.4375,0.109375,-0.265625
1664627521367,0.21069336,-0.942688,-0.2197876,1.734375,-0.484375,0.0625
1664627521396,0.2109375,-0.9314575,-0.21783447,1.078125,-0.296875,-0.21875
1664627521441,0.21069336,-0.9414673,-0.22491455,0.921875,-0.390625,-0.34375
1664627521472,0.20922852,-0.94854736,-0.22589111,0.703125,-0.453125,0.109375
1664627521515,0.20996094,-0.93878174,-0.22393799,0.375,-0.3125,0.203125
1664627521561,0.21411133,-0.9368286,-0.21905518,1.046875,-0.78125,0.03125
1664627521590,0.21386719,-0.94122314,-0.23199463,-0.921875,-0.5,-0.15625
1664627521636,0.20751953,-0.9421997,-0.21270752,2.1875,-0.296875,0.3125
1664627521683,0.21362305,-0.9380493,-0.23760986,-0.671875,0.171875,0.484375
1664627521713,0.2163086,-0.9434204,-0.2276001,-0.859375,0.078125,-0.53125
1664627521787,0.20361328,-0.9402466,-0.21173096,1.875,0.015625,0.6875
1664627521803,0.21801758,-0.9404907,-0.21685791,0.078125,-0.265625,0.15625
1664627521831,0.20629883,-0.93707275,-0.21954346,0.53125,0.046875,0.296875
1664627521893,0.21557617,-0.9397583,-0.22393799,2.40625,-0.265625,0.921875
1664627521910,0.22216797,-0.9368286,-0.22198486,0.8125,0.109375,-0.09375
1664627521965,0.20825195,-0.93463135,-0.22393799,0.828125,0.09375,0.265625
1664627521997,0.21533203,-0.9385376,-0.22418213,1.1875,-0.046875,0.453125
1664627522026,0.21557617,-0.94000244,-0.2197876,0.953125,0.15625,0.296875
1664627522077,0.21533203,-0.9385376,-0.22540283,0.265625,-0.453125,0.09375
1664627522116,0.21582031,-0.9385376,-0.2197876,0.34375,-0.1875,0.140625
1664627522146,0.22070312,-0.93829346,-0.22515869,0.328125,-0.046875,0.046875
1664627522191,0.21923828,-0.9356079,-0.22979736,0.25,-0.609375,0.09375
1664627522225,0.2133789,-0.93096924,-0.21636963,-1.734375,-0.1875,-0.328125
1664627522266,0.21069336,-0.9475708,-0.21221924,2.96875,-0.390625,0.765625
1664627522312,0.2211914,-0.93707275,-0.22418213,-2.46875,0.640625,-0.734375
1664627522342,0.20605469,-0.94244385,-0.21246338,-0.9375,-0.46875,-0.46875
1664627522386,0.20166016,-0.9397583,-0.20855713,1.234375,-0.421875,0.328125
1664627522444,0.21582031,-0.9439087,-0.21636963,0.15625,-0.234375,0.03125
1664627522462,0.20898438,-0.93756104,-0.2156372,0.640625,-0.328125,-0.15625
1664627522520,0.21313477,-0.93634033,-0.21417236,0.828125,-0.203125,0.328125
1664627522562,0.21704102,-0.94000244,-0.22320557,0.53125,-0.0625,-0.109375
1664627522580,0.21289062,-0.9421997,-0.20904541,0.265625,0.21875,-0.046875
1664627522629,0.2121582,-0.9385376,-0.21929932,1.015625,-0.09375,0.28125
1664627522658,0.20751953,-0.9414673,-0.2156372,0.765625,0.359375,0.203125
1664627522711,0.2109375,-0.94195557,-0.21905518,0.8125,0.546875,0.46875
1664627522748,0.21582031,-0.9351196,-0.21343994,0.984375,0.328125,0.578125
1664627522776,0.2097168,-0.9434204,-0.22198486,0.84375,0.6875,0.828125
1664627522820,0.2097168,-0.9360962,-0.21246338,0.90625,0.265625,0.4375
1664627522868,0.21557617,-0.9282837,-0.22711182,-1.171875,0.53125,-0.265625
1664627522898,0.20166016,-0.9404907,-0.20147705,2.828125,-0.625,0.078125
1664627522957,0.21875,-0.94122314,-0.2276001,-1.03125,0.625,-0.296875
1664627522971,0.21166992,-0.94854736,-0.22198486,-0.875,0.375,-0.75
1664627523030,0.203125,-0.9439087,-0.20343018,1.71875,0.265625,0.53125
1664627523061,0.21557617,-0.940979,-0.21026611,0.125,0.8125,0.25
1664627523091,0.2097168,-0.93878174,-0.21612549,1.234375,0.828125,-0.234375
1664627523167,0.2043457,-0.9360962,-0.21929932,2.75,-0.0625,0.15625
1664627523183,0.2097168,-0.9380493,-0.23272705,1.53125,0.09375,-0.53125
1664627523211,0.2121582,-0.942688,-0.21734619,1.453125,-0.40625,-0.015625
1664627523256,0.21386719,-0.93951416,-0.22442627,1.46875,-0.078125,0.40625
1664627523285,0.21655273,-0.9385376,-0.22662354,1.21875,0.203125,0.234375
1664627523331,0.20874023,-0.93951416,-0.22418213,0.8125,-0.265625,0.359375
1664627523381,0.20703125,-0.940979,-0.22442627,1.515625,-0.21875,0.390625
1664627523407,0.21020508,-0.9343872,-0.22296143,1.21875,0.171875,0.59375
1664627523452,0.2121582,-0.9314575,-0.22589111,0.84375,-0.203125,0.125
1664627523511,0.21191406,-0.94317627,-0.23370361,0.015625,-0.09375,0.5
1664627523525,0.21533203,-0.9319458,-0.21832275,1.0,0.109375,-0.09375
1664627523603,0.21435547,-0.94244385,-0.23199463,1.8125,-0.015625,1.015625
1664627523620,0.21166992,-0.9397583,-0.24249268,-1.859375,0.453125,-1.109375
1664627523645,0.20874023,-0.9404907,-0.21685791,1.3125,-0.203125,0.453125
1664627523707,0.21289062,-0.9368286,-0.22467041,0.03125,-0.046875,0.171875
1664627523721,0.2097168,-0.9368286,-0.23223877,-0.0625,-0.125,-0.40625
1664627523765,0.21386719,-0.9380493,-0.22686768,1.359375,-0.40625,0.3125
1664627523810,0.21557617,-0.9360962,-0.21905518,0.28125,0.359375,-0.015625
1664627523841,0.21557617,-0.93634033,-0.22369385,0.15625,-0.09375,0.078125
1664627523885,0.21313477,-0.93951416,-0.22467041,0.734375,-0.265625,0.109375
1664627523931,0.20947266,-0.93951416,-0.22149658,0.015625,-0.109375,0.0
1664627523964,0.21362305,-0.93463135,-0.22271729,0.0,-0.34375,-0.078125
1664627524009,0.2121582,-0.94000244,-0.22320557,0.203125,-0.484375,0.109375
1664627524036,0.20825195,-0.93096924,-0.22271729,0.453125,-0.125,0.03125
1664627524082,0.21679688,-0.9343872,-0.23248291,-0.046875,-0.203125,0.0
1664627524141,0.21435547,-0.95025635,-0.2263794,-0.671875,-0.140625,0.234375
1664627524156,0.21118164,-0.9307251,-0.20831299,-0.515625,-0.140625,-0.375
1664627524218,0.21240234,-0.94415283,-0.22589111,1.875,-0.5625,0.71875
1664627524247,0.22607422,-0.9373169,-0.22125244,-2.0625,1.96875,0.296875
1664627524278,0.21044922,-0.9458618,-0.21929932,1.03125,1.78125,1.375
1664627524352,0.20019531,-0.9390259,-0.20074463,1.21875,0.5625,0.859375
1664627524366,0.21069336,-0.942688,-0.21881104,0.1875,-0.15625,0.5
1664627524397,0.21118164,-0.9356079,-0.21954346,1.125,0.296875,0.140625
1664627524441,0.21655273,-0.94732666,-0.22271729,0.6875,0.328125,0.15625
1664627524478,0.21118164,-0.93927,-0.22955322,0.15625,0.078125,-0.09375
1664627524516,0.20996094,-0.93707275,-0.21685791,1.46875,0.515625,0.34375
1664627524563,0.21533203,-0.93585205,-0.21905518,0.734375,-0.09375,0.515625
1664627524595,0.21313477,-0.94659424,-0.22174072,0.40625,0.484375,0.21875
1664627524636,0.2097168,-0.93585205,-0.22540283,0.8125,0.1875,0.203125
1664627524697,0.21801758,-0.93634033,-0.21612549,0.703125,0.421875,0.5625
1664627524711,0.20996094,-0.93536377,-0.21392822,0.921875,0.265625,0.5
1664627524770,0.21118164,-0.93096924,-0.22027588,0.796875,0.28125,0.34375
1664627524785,0.21484375,-0.9312134,-0.22930908,-0.65625,0.8125,0.359375
1664627524846,0.21044922,-0.9331665,-0.21612549,2.421875,0.046875,0.40625
1664627524878,0.21801758,-0.9397583,-0.2263794,-0.046875,0.671875,0.40625
1664627524909,0.22143555,-0.9314575,-0.24005127,-2.140625,0.453125,-0.59375
1664627524950,0.21850586,-0.9402466,-0.20904541,1.71875,0.015625,0.515625
1664627524996,0.21313477,-0.9378052,-0.21392822,0.53125,-0.15625,0.390625
1664627525026,0.21777344,-0.93463135,-0.22125244,-0.046875,0.265625,0.140625
1664627525071,0.21166992,-0.93463135,-0.2300415,1.421875,-0.296875,0.1875
1664627525115,0.21484375,-0.94000244,-0.21588135,1.59375,-0.21875,-0.25
1664627525146,0.21044922,-0.9336548,-0.21661377,1.3125,0.015625,-0.03125
1664627525197,0.2109375,-0.9360962,-0.22467041,1.5,-0.09375,0.453125
1664627525220,0.22094727,-0.9414673,-0.21905518,1.0,-0.25,-0.40625
1664627525266,0.21557617,-0.93292236,-0.22442627,0.953125,-0.5625,-0.59375
1664627525326,0.21459961,-0.9421997,-0.22442627,1.625,-0.828125,-0.5625
1664627525346,0.21313477,-0.94195557,-0.22515869,1.140625,-1.421875,-0.59375
1664627525401,0.20776367,-0.94000244,-0.23101807,0.921875,-0.890625,-0.53125
1664627525437,0.20629883,-0.9324341,-0.2288208,1.28125,-1.171875,-0.453125
1664627525460,0.21044922,-0.93048096,-0.2300415,-0.921875,-0.578125,-1.078125
1664627525506,0.20336914,-0.9434204,-0.21734619,3.671875,-0.546875,0.1875
1664627525536,0.21679688,-0.9348755,-0.23712158,-2.03125,-0.40625,-1.046875
1664627525611,0.20727539,-0.93707275,-0.22442627,0.171875,0.078125,-0.546875
1664627525627,0.20483398,-0.93634033,-0.2234497,2.09375,0.015625,0.59375
1664627525661,0.20605469,-0.93756104,-0.22955322,-0.484375,-0.71875,-0.515625
1664627525733,0.20410156,-0.9314575,-0.22930908,1.125,-0.375,0.046875
1664627525747,0.21191406,-0.93878174,-0.23150635,1.421875,-0.421875,0.53125
1664627525779,0.2084961,-0.940979,-0.23101807,0.125,-0.171875,0.03125
1664627525838,0.2109375,-0.93585205,-0.2234497,1.0625,-0.109375,0.3125
1664627525851,0.21655273,-0.9356079,-0.2234497,0.890625,-0.015625,0.40625
1664627525912,0.20288086,-0.93951416,-0.22930908,0.203125,0.125,0.03125
1664627525941,0.21118164,-0.93536377,-0.23077393,0.53125,-0.125,0.265625
1664627525972,0.2097168,-0.9365845,-0.22857666,0.6875,-0.234375,0.109375
1664627526032,0.21166992,-0.9312134,-0.22906494,1.140625,0.125,0.078125
1664627526064,0.21826172,-0.93707275,-0.22784424,0.4375,0.078125,-0.109375
1664627526090,0.21533203,-0.94073486,-0.23565674,-0.265625,-0.21875,0.1875
1664627526138,0.20605469,-0.9299927,-0.21807861,-0.046875,0.15625,-0.25
1664627526183,0.21508789,-0.9351196,-0.24053955,1.90625,-0.078125,0.84375
1664627526228,0.21704102,-0.9404907,-0.24029541,-1.875,0.15625,-1.21875
1664627526256,0.20776367,-0.93585205,-0.21636963,1.015625,-0.265625,0.421875
1664627526286,0.21606445,-0.93585205,-0.22149658,-0.21875,-0.015625,-0.140625
1664627526331,0.20703125,-0.9338989,-0.2354126,-0.25,-0.21875,-0.328125
1664627526392,0.20776367,-0.9404907,-0.22613525,1.859375,-0.40625,0.296875
1664627526408,0.21240234,-0.9402466,-0.21221924,0.390625,-0.078125,0.015625
1664627526466,0.20581055,-0.93829346,-0.2276001,-0.1875,-0.125,0.03125
1664627526498,0.20629883,-0.9356079,-0.21807861,1.03125,-0.0625,0.25
1664627526525,0.20996094,-0.9365845,-0.2210083,0.328125,-0.375,0.109375
1664627526587,0.21459961,-0.94000244,-0.22491455,0.171875,-0.21875,-0.140625
1664627526601,0.21191406,-0.93414307,-0.22393799,0.25,-0.59375,0.0
1664627526647,0.21289062,-0.9356079,-0.22052002,0.1875,-0.21875,0.0625
1664627526690,0.20800781,-0.94415283,-0.2185669,0.28125,-0.046875,0.015625
1664627526721,0.2055664,-0.93707275,-0.21929932,0.265625,-0.234375,-0.171875
1664627526765,0.20874023,-0.94000244,-0.22711182,-1.390625,0.234375,-0.390625
1664627526810,0.203125,-0.9368286,-0.20391846,2.6875,-0.40625,0.0
1664627526841,0.21459961,-0.9414673,-0.23028564,-1.3125,0.296875,-0.0625
1664627526917,0.21582031,-0.9417114,-0.2366333,-1.609375,-0.421875,-1.015625
1664627526931,0.20092773,-0.93951416,-0.20318604,1.484375,-0.375,0.484375
1664627526962,0.21313477,-0.9458618,-0.20953369,0.265625,-0.234375,0.421875
1664627527020,0.20922852,-0.9404907,-0.21539307,0.015625,0.4375,-0.359375
1664627527035,0.20117188,-0.9373169,-0.2210083,1.546875,-0.125,0.46875
1664627527097,0.2084961,-0.94195557,-0.21807861,1.15625,0.46875,-0.109375
1664627527126,0.21166992,-0.94195557,-0.21661377,0.296875,0.1875,0.203125
1664627527156,0.20581055,-0.9373169,-0.22247314,1.1875,0.421875,0.46875
1664627527202,0.20678711,-0.94415283,-0.2185669,0.375,0.34375,0.171875
1664627527249,0.21069336,-0.9446411,-0.222229,0.0625,0.359375,-0.1875
1664627527276,0.19995117,-0.9378052,-0.21929932,0.203125,0.234375,0.015625
1664627527321,0.21191406,-0.93927,-0.2234497,-0.78125,-0.25,-0.265625
1664627527351,0.20727539,-0.9414673,-0.21417236,-0.3125,-0.078125,-0.65625
1664627527398,0.19970703,-0.94244385,-0.21466064,-1.640625,0.75,-0.609375
1664627527440,0.21411133,-0.9390259,-0.21539307,-3.359375,1.4375,-1.703125
1664627527470,0.1953125,-0.9546509,-0.19439697,0.109375,0.046875,-0.890625
1664627527517,0.18701172,-0.9456177,-0.23443604,-7.671875,-0.765625,-0.078125
1664627527577,0.22729492,-0.9390259,-0.20098877,-4.671875,1.75,-0.546875
1664627527592,0.20605469,-0.9229126,-0.16851807,2.421875,0.640625,-2.4375
1664627527651,0.17529297,-0.97003174,-0.1687622,1.109375,0.984375,-2.359375
1664627527682,0.18701172,-0.93536377,-0.19439697,1.21875,1.9375,-0.265625
1664627527714,0.19189453,-0.954895,-0.18927002,2.484375,1.8125,1.328125
1664627527756,0.19628906,-0.9483032,-0.20245361,2.21875,1.59375,1.75
1664627527787,0.18457031,-0.9429321,-0.20611572,1.578125,2.0625,2.015625
1664627527846,0.19946289,-0.9456177,-0.21246338,3.5625,2.546875,1.609375
1664627527876,0.18798828,-0.95196533,-0.20928955,2.828125,2.53125,0.953125
1664627527906,0.19506836,-0.9480591,-0.21099854,1.78125,2.1875,1.265625
1664627527950,0.1977539,-0.9487915,-0.21783447,1.4375,2.1875,1.15625
1664627527996,0.19824219,-0.93756104,-0.21685791,0.484375,1.890625,1.265625
1664627528026,0.20922852,-0.9373169,-0.21466064,0.6875,2.078125,0.28125
1664627528073,0.21191406,-0.9421997,-0.21661377,0.96875,0.765625,-0.59375
1664627528100,0.19921875,-0.93585205,-0.19927979,4.0,0.078125,-2.078125
1664627528145,0.18920898,-0.94903564,-0.23248291,3.953125,0.390625,0.015625
1664627528221,0.19555664,-0.9458618,-0.23394775,0.015625,0.65625,-0.375
1664627528225,0.18676758,-0.94366455,-0.21612549,0.8125,0.1875,2.125
1664627528283,0.19897461,-0.9343872,-0.21710205,-0.59375,0.3125,2.375
1664627528318,0.20605469,-0.93951416,-0.22515869,-0.421875,0.5625,0.453125
1664627528341,0.19458008,-0.9336548,-0.23223877,2.390625,-0.40625,-0.078125
1664627528386,0.19433594,-0.9326782,-0.22174072,3.859375,-0.203125,-1.03125
1664627528431,0.18383789,-0.9480591,-0.22296143,3.078125,-0.078125,-0.3125
1664627528464,0.18798828,-0.94244385,-0.22662354,4.0,-1.328125,-0.265625
1664627528505,0.20263672,-0.94244385,-0.22955322,2.359375,-2.25,-0.1875
1664627528536,0.20019531,-0.9480591,-0.24468994,1.140625,-1.265625,-0.03125
1664627528580,0.20507812,-0.93878174,-0.2341919,0.71875,-1.109375,0.484375
1664627528626,0.20214844,-0.92852783,-0.23809814,0.78125,-1.359375,0.203125
1664627528660,0.1977539,-0.93585205,-0.24005127,1.0625,-1.25,-0.15625
1664627528722,0.20483398,-0.9417114,-0.24468994,0.859375,-1.09375,-0.015625
1664627528747,0.20263672,-0.92388916,-0.22955322,0.390625,-0.484375,-0.75
1664627528777,0.19555664,-0.9495239,-0.2390747,3.078125,-0.046875,0.5
1664627528836,0.21142578,-0.9302368,-0.24932861,-2.484375,-0.203125,-1.15625
1664627528851,0.19750977,-0.93585205,-0.22418213,1.328125,-0.203125,-0.046875
1664627528914,0.1953125,-0.93927,-0.2276001,1.203125,-0.453125,0.296875
