# Sensor type: Respeck
# Activity type: Descending stairs
# Activity code: 13
# Subject id: s1957945
# Notes: 
timestamp,accel_x,accel_y,accel_z,gyro_x,gyro_y,gyro_z
1664986573305,-0.06933594,-0.9158325,0.37249756,1.90625,2.375,-1.84375
1664986573316,-0.06616211,-0.90045166,0.371521,1.109375,2.828125,-4.265625
1664986573334,0.29663086,-0.9414673,-0.050354004,0.234375,1.140625,0.65625
1664986573356,0.31396484,-0.94415283,-0.058898926,0.984375,1.578125,0.375
1664986573370,-0.05883789,-0.927063,0.35809326,0.71875,5.5625,-5.328125
1664986573393,0.30664062,-0.9314575,-0.062316895,1.328125,0.546875,0.296875
1664986573400,-0.03125,-0.93048096,0.35321045,-0.25,5.015625,-4.765625
1664986573423,0.31835938,-0.9356079,-0.06793213,0.921875,1.140625,0.375
1664986573447,0.008544922,-1.1555786,0.29193115,-0.96875,4.3125,0.59375
1664986573454,0.31274414,-0.9348755,-0.065979004,1.3125,0.25,-0.578125
1664986573491,0.044677734,-1.0774536,0.22625732,0.109375,3.5625,0.015625
1664986573500,0.31225586,-0.9324341,-0.06817627,-0.65625,-0.640625,-0.03125
1664986573523,0.02709961,-1.0579224,0.30950928,-8.421875,5.265625,-1.640625
1664986573544,0.32202148,-0.94732666,-0.049865723,-0.046875,-0.640625,-1.640625
1664986573565,0.018310547,-0.96417236,0.20574951,0.171875,3.453125,0.28125
1664986573573,0.31176758,-0.9475708,-0.070129395,1.421875,0.890625,-0.78125
1664986573596,0.0024414062,-0.8804321,0.14837646,1.53125,7.671875,0.8125
1664986573621,0.2866211,-0.9451294,-0.055236816,0.078125,0.625,-0.109375
1664986573644,0.052734375,-0.942688,0.18328857,-0.90625,8.3125,3.90625
1664986573654,0.29956055,-0.94781494,-0.057922363,0.796875,1.171875,0.609375
1664986573688,0.029541016,-1.0359497,0.23529053,-4.765625,-1.28125,4.234375
1664986573695,0.29516602,-0.9451294,-0.055480957,0.796875,0.890625,0.703125
1664986573717,-0.028808594,-1.0147095,0.21746826,-5.15625,-4.3125,1.3125
1664986573740,0.3046875,-0.9378052,-0.065979004,0.46875,1.859375,1.515625
1664986573765,-0.018066406,-0.9331665,0.2321167,-3.28125,-4.34375,-1.765625
1664986573768,0.3173828,-0.94317627,-0.05987549,0.796875,1.0625,1.46875
1664986573807,-0.024658203,-0.9158325,0.24969482,0.546875,-3.578125,-1.03125
1664986573814,0.31298828,-0.93829346,-0.06695557,0.359375,1.859375,1.828125
1664986573837,-0.030029297,-0.92852783,0.24505615,2.03125,-0.65625,0.953125
1664986573860,0.31054688,-0.92510986,-0.049865723,2.671875,0.328125,0.578125
1664986573886,0.0041503906,-0.90997314,0.21697998,1.5,0.0,2.390625
1664986573894,0.33935547,-0.9378052,-0.09967041,-0.6875,1.25,0.828125
1664986573966,-0.026611328,-0.897522,0.25457764,-0.046875,-2.859375,2.234375
1664986573957,0.3154297,-0.9402466,-0.061828613,-0.546875,-0.984375,0.015625
1664986573966,-0.017333984,-0.87457275,0.28240967,-0.859375,-3.59375,2.234375
1664986573979,-0.0107421875,-0.9092407,0.28656006,-5.171875,-9.34375,3.109375
1664986574010,0.30664062,-0.9216919,-0.041809082,0.09375,-0.078125,1.53125
1664986574034,0.32592773,-0.93707275,-0.07330322,0.234375,0.46875,-0.1875
1664986574037,0.31713867,-0.93463135,-0.058898926,0.734375,-0.0625,-0.1875
1664986574081,-0.0068359375,-0.8845825,0.28167725,-4.90625,-11.546875,4.671875
1664986574085,-0.07397461,-0.9109497,0.3685913,0.234375,-10.03125,7.390625
1664986574105,0.3178711,-0.9331665,-0.06549072,1.21875,-0.421875,0.71875
1664986574123,-0.13427734,-0.9380493,0.32391357,-1.21875,-8.5625,5.359375
1664986574133,0.31982422,-0.94000244,-0.057922363,0.828125,-0.296875,-0.046875
1664986574151,-0.08251953,-0.9776001,0.3505249,-0.078125,-0.234375,5.453125
1664986574175,0.31933594,-0.93341064,-0.066223145,0.65625,-0.90625,-0.734375
1664986574199,-0.1796875,-0.95635986,0.36810303,3.1875,2.578125,5.953125
1664986574204,0.31225586,-0.93951416,-0.061584473,1.390625,-0.859375,-0.359375
1664986574243,0.04663086,-1.1511841,0.3475952,6.4375,10.984375,3.890625
1664986574261,0.31835938,-0.9299927,-0.061584473,0.171875,-1.4375,-0.625
1664986574273,0.095703125,-1.1282349,0.34710693,1.234375,11.390625,-2.25
1664986574297,0.09643555,-1.0108032,0.30950928,6.859375,3.671875,-3.359375
1664986574325,0.31420898,-0.9390259,-0.0635376,-0.0625,-2.171875,-2.078125
1664986574333,0.30932617,-0.95147705,-0.05670166,1.234375,-0.375,-1.296875
1664986574349,0.25,-0.9404907,0.20062256,12.265625,2.9375,2.53125
1664986574371,0.31079102,-0.93707275,-0.05645752,0.609375,-0.265625,-0.6875
1664986574408,0.32128906,-1.0449829,0.26678467,9.5625,-6.890625,4.734375
1664986574414,0.3083496,-0.9475708,-0.053771973,1.1875,-0.71875,-0.453125
1664986574436,0.125,-1.0176392,0.28216553,6.0,-9.125,-2.640625
1664986574446,0.3046875,-0.9351196,-0.061340332,0.53125,-0.75,-0.515625
1664986574466,0.07861328,-1.0462036,0.28289795,5.859375,-6.203125,-6.671875
1664986574489,0.31103516,-0.93218994,-0.06793213,-0.59375,0.25,0.0
1664986574513,0.13330078,-0.92926025,0.27264404,9.546875,-4.171875,-7.859375
1664986574536,0.30004883,-0.9326782,-0.043762207,2.421875,-1.546875,-0.734375
1664986574559,0.100097656,-0.90704346,0.2645874,5.953125,-5.765625,-3.609375
1664986574565,0.32885742,-0.9343872,-0.08380127,-0.6875,0.015625,0.0625
1664986574587,0.07446289,-0.8257446,0.23016357,3.9375,-4.234375,-4.890625
1664986574640,0.064208984,-0.80718994,0.22991943,-0.0625,-0.09375,-3.625
1664986574645,0.3190918,-0.94122314,-0.06011963,-0.46875,-1.5,-1.34375
1664986574666,0.2919922,-0.9417114,-0.030090332,-0.234375,-2.125,-0.03125
1664986574671,0.028320312,-0.7620239,0.21478271,0.4375,3.921875,-3.59375
1664986574715,0.05126953,-0.7637329,0.230896,3.390625,8.734375,-5.796875
1664986574729,0.3149414,-0.94659424,-0.058166504,-0.8125,-1.75,-0.5625
1664986574736,0.3059082,-0.9402466,-0.061340332,-1.53125,-1.859375,-1.1875
1664986574752,0.022460938,-0.6980591,0.28460693,-0.0625,15.703125,-9.171875
1664986574759,0.30859375,-0.94244385,-0.043518066,0.359375,-0.8125,-0.484375
1664986574781,0.06958008,-0.770813,0.3156128,-8.671875,13.578125,-7.515625
1664986574836,-0.1015625,-0.88531494,0.34735107,-9.921875,20.40625,-11.890625
1664986574854,0.30126953,-0.94244385,-0.0491333,0.921875,-1.34375,-1.546875
1664986574862,0.2890625,-0.94488525,-0.049621582,-0.59375,-0.78125,-0.671875
1664986574871,-0.015380859,-0.94244385,0.32635498,3.40625,14.453125,-8.453125
1664986574879,0.29663086,-0.9446411,-0.036193848,0.71875,-0.375,-0.21875
1664986574902,0.03564453,-0.9561157,0.32147217,-7.234375,9.734375,-7.1875
1664986574924,0.30151367,-0.94732666,-0.04425049,-0.125,-0.546875,0.125
1664986574948,0.0,-0.79229736,0.3805542,-2.015625,8.046875,-3.53125
1664986574971,0.30273438,-0.942688,-0.03717041,0.140625,-0.71875,-0.3125
1664986574993,-0.020019531,-0.67974854,0.3180542,-3.28125,8.984375,-3.609375
1664986574999,0.29711914,-0.94732666,-0.04498291,0.84375,-0.421875,-0.21875
1664986575038,0.07763672,-1.0740356,0.054382324,8.796875,7.734375,11.75
1664986575047,0.3046875,-0.9434204,-0.051086426,0.09375,-0.234375,0.0
1664986575068,0.52490234,-1.7000122,-0.1963501,5.96875,-14.765625,30.546875
1664986575091,0.29663086,-0.942688,-0.03668213,1.359375,-0.171875,-0.28125
1664986575098,-0.1586914,-1.3862915,0.3102417,21.421875,-17.265625,19.203125
1664986575122,0.29638672,-0.9463501,-0.05303955,0.125,-0.765625,-0.375
1664986575145,-0.047607422,-1.565979,0.6383667,-15.71875,-4.46875,4.578125
1664986575164,0.29370117,-0.95391846,-0.047424316,-0.453125,1.09375,0.59375
1664986575186,0.16552734,-1.1577759,-0.085754395,8.84375,-8.125,-1.796875
1664986575198,0.29736328,-0.9116821,-0.02178955,1.296875,-1.90625,-1.171875
1664986575216,0.14038086,-0.88360596,0.2831421,8.71875,5.984375,-3.921875
1664986575240,0.29296875,-0.9446411,-0.070129395,0.53125,1.71875,0.34375
1664986575262,0.13500977,-0.7588501,0.20794678,3.265625,-7.953125,5.15625
1664986575285,0.31054688,-0.9414673,-0.051818848,-0.796875,-1.328125,-1.421875
1664986575307,-0.030029297,-0.6712036,0.12445068,10.15625,-5.296875,-0.296875
1664986575316,0.27539062,-0.94659424,-0.022766113,0.171875,-1.609375,-0.53125
1664986575340,0.0703125,-0.7966919,0.1408081,3.03125,-9.03125,1.734375
1664986575360,0.30004883,-0.9492798,-0.042541504,-0.28125,0.484375,0.625
1664986575383,0.30004883,-0.94488525,-0.033996582,0.828125,-0.171875,-0.46875
1664986575413,0.0063476562,-0.72003174,0.19915771,0.703125,-6.546875,-0.5625
1664986575436,-0.052001953,-0.8826294,0.3307495,-10.234375,-3.453125,-1.5
1664986575439,0.2980957,-0.9487915,-0.047912598,0.546875,0.03125,-0.015625
1664986575499,0.30004883,-0.9439087,-0.042297363,0.765625,-0.21875,-0.53125
1664986575515,0.032714844,-0.7769165,0.23773193,-4.796875,-8.75,-3.703125
1664986575519,-0.06518555,-0.7481079,0.32489014,-11.984375,1.140625,-2.890625
1664986575529,0.29052734,-0.956604,-0.049865723,0.078125,0.109375,-0.484375
1664986575535,-0.07128906,-0.81988525,0.23724365,-6.109375,2.65625,-4.09375
1664986575554,0.2866211,-0.94537354,-0.031066895,-0.0625,0.171875,0.3125
1664986575576,0.033935547,-0.81427,0.30706787,1.8125,7.1875,-1.28125
1664986575598,0.28979492,-0.94073486,-0.03692627,0.484375,-0.203125,0.3125
1664986575624,-0.011230469,-0.9011841,0.27923584,-7.96875,-7.078125,-0.265625
1664986575630,0.2956543,-0.95440674,-0.039123535,0.25,-0.234375,-0.390625
1664986575653,-0.18041992,-0.88726807,0.53582764,-7.703125,1.546875,-6.15625
1664986575676,0.28564453,-0.93951416,-0.042297363,0.390625,-0.46875,-0.015625
1664986575697,0.03515625,-1.1629028,0.2789917,0.890625,-0.828125,-4.28125
1664986575719,0.29467773,-0.94854736,-0.031799316,0.796875,-0.265625,-0.125
1664986575743,0.48266602,-1.4707642,0.21380615,6.09375,-9.828125,3.4375
1664986575751,0.28833008,-0.9507446,-0.028137207,0.640625,-0.03125,-0.0625
1664986575772,0.22485352,-1.3928833,0.5336304,-5.640625,-17.96875,-1.796875
1664986575795,0.2932129,-0.94488525,-0.038391113,0.484375,-0.640625,-0.09375
1664986575818,-0.19946289,-1.352356,0.32489014,11.828125,-10.84375,-2.828125
1664986575841,0.2919922,-0.94073486,-0.03765869,-0.296875,-0.265625,-0.359375
1664986575848,0.10083008,-1.1946411,0.36932373,1.953125,0.90625,-7.671875
1664986575870,0.2866211,-0.94317627,-0.0154418945,2.0625,-0.765625,-0.6875
1664986575923,0.2902832,-0.9402466,-0.058410645,0.515625,0.625,-0.375
1664986575938,0.05126953,-1.031311,0.21453857,3.9375,0.03125,-6.515625
1664986575945,0.022705078,-0.74224854,0.24822998,7.265625,6.0625,-6.25
1664986575959,0.29711914,-0.9507446,-0.035461426,-0.109375,-1.25,-1.875
1664986575968,-0.0017089844,-0.741272,0.29974365,5.484375,6.015625,-3.0625
1664986575989,0.26904297,-0.94854736,-0.009338379,0.859375,-1.03125,-0.328125
1664986576015,0.048828125,-0.7893677,0.2819214,5.796875,6.203125,-0.765625
1664986576045,0.28637695,-0.956604,-0.03741455,0.125,0.390625,0.4375
1664986576056,0.28637695,-0.95025635,-0.038879395,1.046875,0.515625,0.125
1664986576086,0.05078125,-0.7246704,0.29022217,5.9375,4.984375,1.4375
1664986576139,0.040527344,-0.8140259,0.2868042,3.09375,3.125,2.453125
1664986576143,-0.059570312,-0.69976807,0.27679443,0.8125,7.6875,-7.609375
1664986576156,0.28588867,-0.94610596,-0.038391113,1.421875,0.296875,0.625
1664986576164,0.2915039,-0.95098877,-0.030822754,1.71875,0.734375,-0.109375
1664986576167,-0.041992188,-0.7424927,0.32684326,2.0,15.28125,-8.6875
1664986576185,0.2890625,-0.9522095,-0.04083252,1.171875,0.671875,0.375
1664986576238,0.28588867,-0.9480591,-0.028625488,1.171875,1.828125,0.46875
1664986576254,-0.06933594,-0.7246704,0.43426514,0.921875,15.453125,-11.421875
1664986576263,0.017089844,-0.89190674,0.27923584,-0.8125,11.546875,-4.421875
1664986576277,0.29467773,-0.9505005,-0.0569458,1.078125,1.28125,0.671875
1664986576283,0.012939453,-0.9456177,0.35003662,-7.046875,7.765625,-4.625
1664986576305,0.2866211,-0.94122314,-0.043518066,0.96875,0.328125,0.234375
1664986576328,0.018554688,-0.9602661,0.47503662,-5.140625,4.78125,0.28125
1664986576353,0.28759766,-0.95025635,-0.042297363,1.46875,1.21875,0.625
1664986576374,0.03857422,-1.1619263,0.40911865,-12.21875,-9.625,4.5625
1664986576395,0.2878418,-0.94610596,-0.04425049,0.703125,1.28125,1.28125
1664986576404,0.123535156,-1.4590454,0.20574951,-13.125,-6.390625,3.6875
1664986576426,0.28344727,-0.9470825,-0.039367676,1.46875,1.640625,1.59375
1664986576448,-0.040771484,-1.1209106,0.34344482,-7.203125,3.0,-1.171875
1664986576469,0.2939453,-0.9434204,-0.034484863,0.859375,1.09375,2.3125
1664986576492,0.05493164,-1.385315,0.35247803,-1.0,4.828125,4.46875
1664986576516,0.29760742,-0.9439087,-0.05987549,-0.203125,3.421875,3.25
1664986576524,0.10986328,-1.149231,0.24163818,8.453125,-3.546875,6.21875
1664986576544,0.29003906,-0.9326782,-0.030822754,1.609375,0.6875,1.59375
1664986576568,0.087646484,-1.0671997,0.24554443,10.078125,-7.140625,7.890625
1664986576593,0.31762695,-0.93927,-0.0725708,-0.71875,2.171875,0.84375
1664986576597,0.011230469,-0.84820557,0.2506714,12.921875,-5.3125,5.59375
1664986576635,0.31152344,-0.94195557,-0.04083252,0.140625,0.0625,-0.5
1664986576643,-0.038085938,-0.77349854,0.2333374,11.859375,-8.96875,5.3125
1664986576665,0.29052734,-0.9373169,-0.024963379,0.875,1.171875,0.9375
1664986576689,-0.09326172,-0.770813,0.26678467,4.890625,-4.953125,0.375
1664986576714,0.31298828,-0.9429321,-0.04058838,0.484375,2.109375,0.875
1664986576716,-0.055664062,-0.77471924,0.23529053,1.359375,-4.4375,-1.125
1664986576739,0.3059082,-0.9314575,-0.058410645,1.1875,0.65625,0.0
1664986576762,-0.059814453,-0.76153564,0.27288818,-3.921875,-0.296875,-1.421875
1664986576817,-0.044677734,-0.7564087,0.24945068,-10.84375,-0.53125,-1.53125
1664986576831,0.30444336,-0.94732666,-0.057434082,1.71875,1.09375,0.6875
1664986576837,0.30541992,-0.94195557,-0.054504395,2.0,0.96875,-0.015625
1664986576844,-0.055664062,-0.6838989,0.23577881,-7.03125,1.1875,-2.421875
1664986576866,0.30151367,-0.9470825,-0.061828613,0.421875,0.859375,0.421875
1664986576913,0.29956055,-0.94317627,-0.05596924,0.96875,0.609375,0.46875
1664986576917,-0.076416016,-0.76226807,0.3529663,-5.078125,2.640625,-2.625
1664986576935,-0.12548828,-0.7415161,0.3529663,-5.0,1.3125,-7.421875
1664986576951,-0.020507812,-0.9343872,0.45721436,-1.75,3.75,-1.46875
1664986576982,0.30322266,-0.94903564,-0.057678223,0.78125,0.78125,0.859375
1664986576990,0.3071289,-0.9368286,-0.06085205,0.625,0.703125,1.046875
1664986577003,-0.11352539,-0.8965454,0.41033936,-7.5625,1.921875,-2.578125
1664986577025,0.3100586,-0.9373169,-0.04840088,0.59375,0.09375,0.75
1664986577032,-0.061767578,-1.06427,0.4171753,-5.609375,1.453125,-4.84375
1664986577070,0.30859375,-0.93414307,-0.057434082,1.234375,0.6875,0.796875
1664986577079,0.32299805,-1.2920532,0.0914917,5.3125,-4.828125,0.71875
1664986577104,0.3076172,-0.93951416,-0.05987549,0.234375,-0.578125,0.140625
1664986577125,0.20483398,-1.3501587,0.42352295,-8.0,-10.046875,0.125
1664986577145,0.30932617,-0.95147705,-0.06939697,0.375,-0.609375,0.453125
1664986577151,-0.16064453,-1.3103638,0.53948975,1.140625,-6.765625,-2.015625
1664986577175,0.3149414,-0.9404907,-0.05718994,-0.328125,-0.546875,-0.90625
1664986577227,0.30371094,-0.954895,-0.062561035,1.046875,0.671875,0.5625
1664986577231,0.032470703,-1.3218384,0.37982178,8.171875,6.21875,-5.8125
1664986577249,0.115722656,-1.1309204,0.36346436,3.59375,-0.015625,-3.140625
1664986577265,0.32104492,-0.94122314,-0.05645752,-1.015625,-1.703125,-2.59375
1664986577274,0.03540039,-0.9312134,0.29486084,4.25,2.609375,2.171875
1664986577296,0.28857422,-0.9487915,-0.038146973,0.703125,-2.1875,-0.515625
1664986577317,-0.022949219,-0.80792236,0.29315186,9.015625,5.984375,-0.078125
1664986577343,0.3088379,-0.9404907,-0.05206299,-0.1875,-0.234375,0.15625
1664986577347,0.04296875,-0.74713135,0.30706787,9.796875,7.03125,-2.5
1664986577384,0.30615234,-0.9439087,-0.050598145,0.984375,-0.296875,-0.6875
1664986577396,0.008056641,-0.75567627,0.28045654,9.4375,6.3125,-1.984375
1664986577415,0.2993164,-0.94732666,-0.04547119,2.03125,-0.875,0.15625
1664986577436,0.0021972656,-0.6904907,0.25653076,9.265625,7.78125,-2.03125
1664986577462,0.30981445,-0.9314575,-0.06719971,1.984375,-0.375,0.171875
1664986577467,0.013671875,-0.7710571,0.34881592,3.546875,5.921875,-2.328125
1664986577505,0.30078125,-0.94244385,-0.047424316,0.796875,-0.75,-1.21875
1664986577512,-0.10205078,-0.675354,0.36468506,2.703125,4.96875,-6.875
1664986577536,0.2980957,-0.9402466,-0.046936035,0.359375,-0.296875,0.265625
1664986577560,0.3046875,-0.9404907,-0.054992676,0.328125,-0.625,-0.28125
1664986577588,0.04663086,-0.77545166,0.38079834,-2.765625,14.6875,-2.796875
1664986577613,0.02758789,-0.7876587,0.30828857,-0.640625,6.78125,5.296875
1664986577627,-0.040527344,-0.8369751,0.3378296,-0.703125,-1.515625,2.171875
1664986577657,0.30322266,-0.94122314,-0.054748535,0.453125,-0.625,-0.828125
1664986577666,0.30126953,-0.9373169,-0.053527832,0.515625,-1.234375,-0.734375
1664986577675,0.016601562,-0.84503174,0.4940796,1.703125,-1.3125,3.46875
1664986577730,0.009765625,-1.0918579,0.45941162,-2.4375,-6.8125,5.640625
1664986577734,0.2993164,-0.94488525,-0.046691895,0.1875,-0.671875,-0.421875
1664986577738,0.30249023,-0.944397,-0.039611816,0.65625,-0.921875,-0.046875
1664986577757,0.1586914,-1.5310669,0.35028076,-10.8125,-5.96875,8.953125
1664986577777,0.29858398,-0.94415283,-0.054504395,1.078125,-0.234375,-0.203125
1664986577781,0.034179688,-1.0703735,0.17376709,-6.09375,-6.078125,4.828125
1664986577819,0.29003906,-0.9495239,-0.042053223,1.09375,-0.703125,0.828125
1664986577827,0.07421875,-1.3821411,0.34954834,-0.28125,6.03125,5.0
1664986577855,0.30981445,-0.94366455,-0.050109863,-0.5625,-0.15625,-0.203125
1664986577873,0.11352539,-1.2351685,0.44891357,3.5625,-0.4375,7.59375
1664986577894,0.28588867,-0.9512329,-0.050109863,2.03125,0.734375,0.25
1664986577902,0.07739258,-1.1951294,0.22845459,5.171875,-6.0,8.40625
1664986577940,0.32666016,-0.94854736,-0.069885254,-0.953125,-0.125,-0.625
1664986577948,0.0053710938,-0.9109497,0.30584717,16.5,3.15625,3.5
1664986577969,0.29345703,-0.9356079,-0.04425049,-0.375,-2.34375,-0.890625
1664986577978,0.028564453,-0.7852173,0.2477417,14.59375,1.234375,3.1875
1664986578017,0.29956055,-0.94244385,-0.043518066,-0.125,0.015625,0.5625
1664986578021,0.011230469,-0.7776489,0.21282959,10.71875,-1.859375,2.25
1664986578066,0.31054688,-0.944397,-0.051574707,0.0,-0.578125,-1.28125
1664986578069,0.048828125,-0.739563,0.19769287,4.921875,-4.4375,2.546875
1664986578092,0.29223633,-0.9402466,-0.05230713,-0.171875,-2.0,-1.765625
1664986578096,-0.010009766,-0.82354736,0.24407959,3.34375,-2.203125,2.171875
1664986578136,0.2980957,-0.9414673,-0.038635254,0.484375,-0.421875,-0.671875
1664986578143,0.024902344,-0.7114868,0.20526123,-2.625,-4.59375,-0.078125
1664986578165,0.28881836,-0.9529419,-0.042053223,0.578125,-0.703125,-0.953125
1664986578190,-0.04711914,-0.7029419,0.340271,-6.46875,-4.53125,1.6875
1664986578212,0.28271484,-0.9458618,-0.03277588,-0.125,-0.140625,0.109375
1664986578217,-0.06933594,-0.7246704,0.28363037,-7.171875,-2.875,-1.015625
1664986578287,-0.047851562,-0.8279419,0.29632568,-7.859375,2.984375,-4.0
1664986578292,0.2927246,-0.942688,-0.03668213,0.484375,-0.625,0.03125
1664986578293,0.29296875,-0.9487915,-0.042053223,0.375,0.203125,0.078125
1664986578309,0.29785156,-0.94732666,-0.046203613,0.296875,-0.421875,0.265625
1664986578337,-0.048339844,-0.8574829,0.31610107,-7.421875,-0.0625,-7.0625
1664986578358,-0.07470703,-0.90997314,0.40496826,-4.453125,4.671875,-5.921875
1664986578374,0.29785156,-0.9463501,-0.042297363,0.4375,-0.015625,-0.015625
1664986578381,0.04736328,-1.1607056,0.3859253,-2.953125,-3.453125,-5.734375
1664986578404,0.29003906,-0.9480591,-0.04156494,0.640625,-0.515625,-0.453125
1664986578411,0.28564453,-1.4258423,0.24163818,3.234375,-3.765625,-6.5
1664986578479,0.29418945,-0.9439087,-0.044006348,0.46875,-0.4375,-0.515625
1664986578489,0.3232422,-1.1802368,0.43597412,2.484375,-14.140625,-3.390625
1664986578493,0.29736328,-0.9522095,-0.04522705,0.171875,-0.78125,-0.734375
1664986578515,-0.059814453,-1.411438,0.4533081,4.484375,-1.296875,-1.640625
1664986578525,0.27661133,-0.9627075,-0.035217285,0.953125,0.015625,0.546875
1664986578533,0.05419922,-1.1897583,0.35321045,6.234375,-1.859375,-8.625
1664986578570,0.31201172,-0.94195557,-0.050109863,-0.4375,-0.296875,-0.953125
1664986578575,0.09838867,-1.1113892,0.3475952,5.59375,0.46875,-5.453125
1664986578615,0.28076172,-0.9553833,-0.038146973,2.484375,1.875,0.421875
1664986578623,0.03466797,-0.9192505,0.324646,3.96875,1.125,-5.78125
1664986578647,0.30371094,-0.95147705,-0.04937744,-1.125,-0.328125,-0.640625
1664986578651,-0.016845703,-0.76934814,0.31121826,5.078125,4.03125,-2.90625
1664986578690,0.28027344,-0.94488525,-0.030822754,0.296875,-1.203125,-0.234375
1664986578697,0.07519531,-0.7756958,0.29241943,8.53125,5.53125,-2.515625
1664986578723,0.28271484,-0.95147705,-0.028381348,0.390625,0.203125,0.328125
1664986578727,0.03491211,-0.73321533,0.2892456,5.875,5.265625,-0.21875
1664986578767,0.3005371,-0.9536743,-0.03717041,0.78125,0.265625,0.25
1664986578774,0.049072266,-0.71539307,0.31121826,2.453125,4.59375,-1.03125
1664986578812,0.27490234,-0.9421997,-0.040100098,1.859375,0.046875,-0.34375
1664986578816,-0.07299805,-0.6865845,0.36834717,-1.34375,12.078125,-7.6875
1664986578842,0.2919922,-0.94659424,-0.04058838,0.921875,-0.265625,0.625
1664986578848,-0.017822266,-0.6939087,0.34417725,-0.3125,11.796875,-6.859375
1664986578884,0.29492188,-0.9470825,-0.045715332,1.265625,0.3125,-0.421875
1664986578897,0.03930664,-0.73516846,0.340271,-0.03125,7.03125,-4.1875
1664986578930,0.28125,-0.95880127,-0.038146973,0.796875,0.03125,0.28125
1664986578940,0.026611328,-0.7883911,0.37738037,-0.140625,0.9375,2.796875
1664986578960,0.28295898,-0.9429321,-0.04156494,1.125,-0.21875,0.484375
1664986578967,-0.07373047,-0.8665161,0.3703003,0.75,-2.734375,-1.921875
1664986579039,0.28076172,-0.9619751,-0.028869629,2.0,0.375,-0.34375
1664986579047,0.052246094,-1.3064575,0.33441162,-7.734375,-13.109375,4.0625
1664986579055,0.27514648,-0.9573364,-0.058410645,2.390625,2.828125,2.96875
1664986579059,0.3527832,-1.5640259,0.17547607,-20.21875,-22.625,15.390625
1664986579080,0.28564453,-0.9373169,-0.02545166,0.453125,0.578125,1.53125
1664986579087,-0.22998047,-1.0852661,0.49627686,-8.453125,6.9375,-0.140625
1664986579156,0.088134766,-1.5005493,0.36175537,-1.421875,3.984375,8.21875
1664986579156,0.26953125,-1.0574341,-0.09454346,-15.359375,-5.109375,0.84375
1664986579161,0.24536133,-0.97784424,-0.042297363,-14.921875,6.796875,10.9375
1664986579170,0.091308594,-1.140686,0.28533936,3.234375,10.390625,-0.078125
1664986579201,0.23706055,-0.881897,-0.051818848,-18.78125,-4.828125,23.328125
1664986579208,0.13989258,-0.9981079,0.29412842,6.9375,1.40625,5.40625
1664986579246,0.43847656,-0.9727173,0.08856201,-9.59375,-2.03125,-1.375
1664986579267,0.052246094,-0.88897705,0.28753662,9.171875,0.484375,6.3125
1664986579278,0.390625,-0.9595337,-0.042053223,-5.15625,-0.359375,-15.265625
1664986579283,0.00390625,-0.75177,0.29901123,7.828125,-0.8125,3.40625
1664986579319,0.3527832,-0.93707275,0.020446777,-2.625,-3.890625,-16.6875
1664986579343,-0.037353516,-0.78619385,0.31585693,7.859375,-3.296875,3.3125
1664986579367,0.37304688,-0.92974854,-0.004211426,-5.515625,-5.453125,-19.421875
1664986579374,-0.044189453,-0.75445557,0.2682495,1.328125,-5.171875,-0.34375
1664986579396,0.33325195,-0.8740845,0.12786865,-0.953125,-9.421875,-15.984375
1664986579403,0.052001953,-0.7217407,0.25115967,7.046875,0.046875,2.171875
1664986579443,0.2932129,-0.96295166,0.082458496,3.5,-9.25,-24.03125
1664986579448,0.10449219,-1.1074829,0.06951904,2.1875,-6.53125,-19.3125
1664986579478,-0.042236328,-0.70684814,0.34710693,-7.828125,-6.390625,4.3125
1664986579485,-0.07543945,-0.73101807,0.23284912,-1.0,2.421875,2.125
1664986579515,0.22143555,-0.88360596,0.05633545,-13.671875,10.296875,-11.171875
1664986579538,0.06958008,-0.7246704,0.3324585,-0.390625,-1.453125,3.8125
1664986579558,0.24047852,-0.93829346,0.04827881,-4.140625,-2.671875,-21.40625
1664986579601,-0.04663086,-0.7307739,0.28826904,-4.703125,-3.296875,-0.59375
1664986579605,0.19116211,-1.0769653,-0.15435791,-19.96875,4.859375,-17.90625
1664986579607,-0.11206055,-0.8887329,0.4364624,0.21875,8.9375,-3.0
1664986579634,0.14575195,-0.866272,0.098083496,-11.296875,11.625,-16.03125
1664986579644,0.042236328,-1.1033325,0.44281006,-6.9375,0.4375,0.828125
1664986579680,0.11206055,-0.9702759,0.027038574,8.671875,-17.171875,-14.21875
1664986579688,0.21533203,-1.3335571,0.21258545,2.25,2.015625,-2.90625
1664986579714,0.08178711,-0.96221924,-0.13897705,-31.46875,33.734375,-9.8125
1664986579719,0.35791016,-1.2698364,0.33807373,-1.046875,-15.21875,-7.484375
1664986579784,0.016357422,-1.2315063,0.4315796,4.234375,-15.890625,0.421875
1664986579799,-0.033691406,-1.1192017,0.46453857,46.640625,-25.546875,-10.4375
1664986579809,-0.23779297,-0.8921509,0.16912842,-36.5625,-5.03125,-21.1875
1664986579817,0.044677734,-1.2715454,0.3685913,5.75,-1.84375,-4.6875
1664986579829,0.1821289,-1.0803833,-0.027648926,-9.03125,9.9375,-18.84375
1664986579837,-0.017578125,-0.9976196,0.18743896,-2.859375,-2.671875,-16.0
1664986579885,0.057617188,-0.9898071,0.37054443,4.78125,0.0625,-10.84375
1664986579905,-0.07397461,-0.9751587,0.1359253,-5.03125,-1.421875,-13.609375
1664986579912,0.14477539,-0.989563,0.31219482,6.640625,7.296875,0.5
1664986579922,0.06665039,-0.8464966,0.28851318,5.859375,2.8125,-1.25
1664986579950,-0.017089844,-0.96588135,0.2086792,-1.03125,1.484375,-11.15625
1664986579988,0.04638672,-0.74102783,0.32318115,10.234375,7.09375,0.28125
1664986579994,-0.05834961,-0.9783325,0.14642334,-7.921875,6.109375,-12.390625
1664986580002,0.0871582,-0.8189087,0.322937,7.8125,3.546875,2.6875
1664986580041,-0.13012695,-0.98321533,0.17327881,-0.53125,-1.0,-9.96875
1664986580051,0.03881836,-0.8023071,0.3180542,8.46875,1.28125,-0.875
1664986580070,-0.09887695,-0.96832275,0.16033936,-3.21875,2.578125,-8.953125
1664986580109,-0.34423828,-1.0930786,0.20916748,15.21875,2.796875,-1.546875
1664986580118,0.0068359375,-0.74420166,0.33831787,-0.03125,0.234375,-6.859375
1664986580123,-0.022705078,-0.76519775,0.33587646,1.109375,2.484375,-6.0
1664986580144,0.028320312,-0.78497314,0.31097412,-0.203125,4.6875,-5.0625
1664986580193,-0.048339844,-1.1045532,0.1449585,-11.171875,4.890625,-7.65625
1664986580213,-0.55615234,-0.6206665,-2.0,-106.046875,-95.9375,11.65625
1664986580219,-0.15673828,-1.0750122,0.3505249,8.09375,0.15625,5.125
1664986580228,0.0041503906,-0.7962036,0.37835693,-2.28125,1.546875,-1.578125
1664986580236,-0.009277344,-0.81500244,0.31707764,-3.171875,2.421875,-0.90625
1664986580266,-0.0048828125,-0.86602783,0.4130249,-9.0625,1.84375,-3.15625
1664986580311,-0.08520508,-1.1033325,0.1762085,8.15625,-25.90625,6.421875
1664986580319,0.029052734,-0.89923096,0.1954956,-5.5,-5.453125,-0.671875
1664986580322,-0.20996094,-1.0369263,0.17938232,9.8125,21.765625,6.109375
1664986580349,0.005859375,-1.2246704,0.3883667,-14.53125,-0.359375,0.359375
1664986580358,0.36157227,-1.2510376,0.07757568,-9.734375,-7.0,9.640625
1664986580385,-0.029785156,-0.9234009,0.26287842,6.421875,4.453125,1.578125
1664986580408,-0.15795898,-1.0847778,0.41888428,1.109375,4.109375,1.046875
1664986580431,-0.10571289,-0.99176025,0.17938232,6.03125,14.109375,7.109375
1664986580440,-0.044677734,-0.97052,0.030212402,22.265625,0.53125,8.515625
1664986580468,0.035888672,-1.5650024,0.35491943,-3.234375,7.859375,9.203125
1664986580477,0.203125,-1.1138306,0.31292725,10.921875,0.671875,3.640625
1664986580506,-0.052734375,-0.95758057,0.22943115,29.828125,12.984375,11.625
1664986580529,-0.052001953,-1.0491333,0.23699951,20.546875,34.15625,16.015625
1664986580578,0.053955078,-1.1138306,0.45111084,3.890625,1.796875,7.703125
1664986580579,-0.020263672,-0.92144775,0.05731201,3.796875,19.4375,17.078125
1664986580601,0.09814453,-0.92266846,0.23602295,9.65625,-5.5625,4.578125
1664986580658,0.032958984,-0.7595825,0.24383545,8.90625,-3.640625,1.40625
1664986580662,-0.0087890625,-0.82037354,0.2987671,7.8125,-6.359375,2.9375
1664986580671,0.040039062,-0.7437134,0.20916748,8.609375,-7.90625,2.140625
1664986580701,0.014160156,-0.7866821,0.2741089,1.921875,-7.015625,2.8125
1664986580743,-0.012451172,-1.0542603,0.09857178,13.625,-6.015625,4.875
1664986580754,-0.0107421875,-0.7341919,0.30999756,-3.171875,-7.78125,1.09375
1664986580791,-0.035888672,-0.74957275,0.30999756,-2.1875,2.4375,2.625
1664986580821,-0.0021972656,-0.7866821,0.26409912,-0.828125,-8.109375,2.4375
1664986580866,0.12719727,-0.9319458,0.0014038086,0.6875,-30.015625,5.84375
1664986580889,-0.03540039,-0.8882446,0.3944702,-8.25,-2.46875,3.515625
1664986580910,-0.1381836,-0.81744385,0.4052124,-2.5,3.3125,-1.984375
1664986580943,0.037109375,-0.894104,0.39007568,7.484375,-1.015625,2.640625
1664986580986,0.103515625,-1.0576782,0.03729248,28.265625,-8.015625,7.578125
1664986581038,0.07714844,-1.1016235,-0.1116333,55.84375,16.15625,12.3125
1664986581045,0.12036133,-0.9404907,-0.074035645,58.125,18.984375,9.921875
1664986581050,-0.007080078,-0.92388916,-0.09844971,36.359375,8.125,6.0
1664986581055,0.19750977,-1.2727661,0.21307373,2.703125,-12.53125,3.53125
1664986581061,0.4165039,-1.2442017,0.25726318,7.046875,-14.203125,2.734375
1664986581067,0.203125,-1.3084106,0.5499878,5.75,-15.484375,-1.34375
1664986581121,-0.05883789,-1.279602,0.416687,0.015625,-10.8125,-5.84375
1664986581137,0.0014648438,-0.99664307,-0.0960083,23.4375,-4.0,10.625
1664986581176,0.119140625,-1.0730591,-0.09869385,28.984375,6.8125,3.90625
1664986581180,0.04345703,-1.1253052,0.34051514,6.859375,-1.6875,-15.203125
1664986581188,0.12890625,-0.9993286,0.37347412,6.96875,1.265625,-11.609375
1664986581225,0.033447266,-0.8164673,0.29681396,6.53125,1.34375,-9.0
1664986581300,0.02709961,-0.7642212,0.27874756,8.875,3.46875,-6.75
1664986581304,0.076660156,-0.7774048,0.27264404,7.296875,3.609375,-4.03125
1664986581376,0.061279297,-0.7402954,0.28070068,6.640625,5.09375,-0.625
1664986581381,0.03955078,-0.694397,0.3258667,0.609375,1.4375,-3.1875
1664986581423,-0.095458984,-0.7251587,0.37322998,-0.640625,5.4375,-6.90625
1664986581464,-0.033203125,-0.8284302,0.4274292,-2.109375,8.140625,-8.828125
1664986581495,-0.03515625,-0.8123169,0.3324585,-0.3125,13.765625,-8.890625
1664986581543,-0.017333984,-0.8887329,0.33343506,5.078125,11.078125,-2.484375
1664986581585,-9.765625E-4,-0.7918091,0.3295288,-5.921875,12.046875,-1.625
1664986581616,0.1274414,-1.1160278,-0.35211182,2.625,12.46875,-16.4375
1664986581639,0.061279297,-0.96881104,-0.32183838,-46.609375,7.34375,-15.953125
1664986581646,0.064697266,-0.8936157,-0.300354,-104.359375,-5.21875,-10.015625
1664986581650,0.2836914,-0.7974243,-0.05718994,-85.34375,-4.828125,-3.90625
1664986581655,0.044921875,-1.0723267,0.3776245,-11.640625,2.96875,1.6875
1664986581662,0.2993164,-1.4690552,0.230896,-27.875,-7.84375,10.53125
1664986581692,0.0053710938,-0.7683716,0.05291748,-66.921875,-21.984375,8.234375
1664986581714,-0.026611328,-1.2073364,0.13421631,-18.359375,9.40625,-7.28125
1664986581718,-0.12646484,-1.3311157,0.36102295,-18.359375,6.765625,3.375
1664986581735,0.118652344,-0.79766846,0.16790771,-7.65625,1.390625,1.765625
1664986581743,0.15063477,-1.2241821,0.18182373,-37.171875,-7.390625,-11.734375
1664986581747,-0.060058594,-1.0740356,0.19403076,-17.90625,-10.1875,7.84375
1664986581755,0.1171875,-1.0794067,-0.023498535,-4.5,-11.59375,-12.28125
1664986581772,-0.05859375,-0.9151001,0.29656982,-17.375,8.421875,-2.515625
1664986581776,0.041259766,-1.1358032,0.43450928,-0.53125,8.109375,-0.125
1664986581779,-0.119384766,-0.7876587,0.33587646,2.390625,1.3125,-11.453125
1664986581781,-0.041015625,-0.98028564,0.25457764,-12.0,2.046875,-3.015625
1664986581788,-0.17651367,-0.9807739,0.23895264,2.65625,-4.84375,-0.59375
1664986581791,-0.088134766,-1.0532837,0.2975464,-1.0625,-1.359375,-9.65625
1664986581793,0.040771484,-1.2642212,0.5812378,-4.0625,8.859375,0.578125
1664986581809,0.0034179688,-0.98443604,0.3168335,-3.921875,-1.28125,-7.0625
1664986581821,0.026611328,-0.98443604,0.21160889,4.4375,6.109375,-0.515625
1664986581858,-0.109375,-0.96466064,0.24188232,1.25,-6.875,-2.796875
1664986581877,-0.15893555,-0.88653564,0.24603271,4.015625,-6.9375,-1.90625
1664986581882,-0.125,-1.0464478,0.25482178,-24.203125,19.515625,-2.359375
1664986581893,0.08276367,-0.8648071,0.34735107,9.234375,2.453125,3.59375
1664986581904,0.0769043,-0.786438,0.2897339,10.03125,-2.984375,6.09375
1664986581930,-0.18701172,-1.0220337,0.32489014,10.03125,-16.40625,-5.109375
1664986582000,-0.23632812,-1.100647,0.3829956,-14.046875,-17.703125,-2.234375
1664986582004,-0.020263672,-0.8010864,0.26507568,5.46875,-4.953125,3.296875
1664986582008,-0.014892578,-0.8064575,0.30804443,7.671875,-1.234375,1.484375
1664986582022,-0.2692871,-0.878479,0.3348999,17.890625,-35.890625,4.953125
1664986582029,-0.026367188,-0.75323486,0.2748413,4.34375,-4.046875,-0.140625
1664986582050,-0.11669922,-0.88848877,0.277771,12.859375,-14.359375,21.21875
1664986582073,-0.024658203,-0.8189087,0.31414795,-0.90625,-6.015625,1.203125
1664986582126,0.012939453,-0.600647,0.34661865,-1.453125,-5.671875,-1.96875
1664986582130,-0.030517578,-0.81451416,0.3710327,-5.625,-2.25,4.609375
1664986582175,-0.06542969,-0.74713135,0.2855835,-4.34375,0.421875,-3.328125
1664986582217,-0.06542969,-0.9089966,0.25360107,-0.890625,6.9375,4.40625
1664986582224,-0.20874023,-1.0159302,0.30584717,11.171875,3.21875,-7.734375
1664986582231,-0.07128906,-0.94537354,0.57733154,-1.5,2.40625,-0.734375
1664986582244,-0.110839844,-0.847229,0.45355225,-5.296875,11.78125,-10.15625
1664986582322,0.07324219,-1.1934204,0.48773193,6.84375,10.859375,-4.03125
1664986582336,-0.18383789,-1.1348267,0.4274292,35.40625,44.09375,4.71875
1664986582360,0.25439453,-1.3550415,0.33294678,-0.1875,-3.328125,-7.921875
1664986582366,0.3154297,-1.2029419,0.31365967,11.515625,-17.25,3.0625
1664986582409,-0.08544922,-1.2493286,0.4713745,4.328125,-23.28125,4.65625
1664986582457,-0.061279297,-1.0845337,0.37615967,2.1875,-9.640625,-9.453125
1664986582487,-0.029052734,-1.0376587,0.41351318,-0.546875,-3.078125,-8.15625
1664986582530,0.083496094,-0.8870239,0.30950928,2.859375,-3.390625,-6.75
1664986582576,-0.010253906,-0.79278564,0.39056396,3.375,-2.8125,-2.765625
1664986582605,-0.24609375,-0.79473877,0.27386475,-1.40625,20.96875,9.609375
1664986582655,-0.059814453,-0.84747314,0.21087646,-39.703125,-1.3125,-29.0
1664986582660,-0.26782227,-1.2637329,0.4430542,-25.953125,10.734375,-7.6875
1664986582664,-0.053466797,-1.0066528,0.41229248,-46.75,1.90625,-13.4375
1664986582670,-0.26342773,-0.92803955,0.5307007,-32.9375,6.109375,-8.484375
1664986582674,-0.23730469,-0.89019775,0.29656982,-42.15625,-38.09375,-24.75
1664986582677,-0.026855469,-0.8106079,0.33758545,7.03125,2.21875,-1.375
1664986582678,0.016845703,-0.7803345,0.2538452,9.53125,5.75,-1.109375
1664986582681,0.0,-0.7905884,0.3522339,8.765625,3.359375,-2.28125
1664986582756,-0.32128906,-0.7788696,0.53900146,-38.859375,-14.96875,-17.125
1664986582763,-0.16015625,-0.60479736,0.5026245,-19.390625,-1.578125,-24.375
1664986582767,-0.07006836,-0.69781494,0.40301514,-2.453125,6.453125,-7.234375
1664986582769,-0.21826172,-0.8452759,0.727478,-45.640625,24.359375,-14.3125
1664986582776,-0.41430664,-0.77227783,0.6264038,-30.046875,51.921875,-2.53125
1664986582793,-0.032958984,-0.70684814,0.41912842,2.359375,11.421875,-9.234375
1664986582803,-0.28295898,-0.74468994,0.4430542,-33.828125,59.96875,-17.328125
1664986582809,-0.3557129,-0.46173096,0.64959717,-8.703125,21.5,-36.25
1664986582811,-0.21020508,-0.6367798,0.81073,-47.1875,57.6875,-49.671875
1664986582815,-0.23388672,-0.6765747,0.88568115,-23.859375,104.90625,-52.34375
1664986582819,0.024414062,-0.6123657,0.6906128,-1.484375,46.484375,-41.390625
1664986582822,0.033935547,-0.6069946,0.7953491,-4.03125,82.46875,-26.765625
1664986582836,0.009277344,-0.7781372,0.4689331,7.203125,2.46875,1.546875
1664986582843,0.025878906,-0.8867798,0.31976318,6.1875,8.40625,5.203125
1664986582891,0.022460938,-0.65167236,0.9633179,31.8125,105.671875,-28.0
1664986582899,0.14331055,-0.7739868,0.74749756,14.953125,86.71875,-24.78125
1664986582913,0.00390625,-0.82598877,0.44940186,-2.828125,-2.78125,3.78125
1664986582920,0.103515625,-0.7258911,0.78289795,-19.796875,58.484375,-29.796875
1664986582958,0.015136719,-1.1011353,0.44110107,-6.15625,-9.140625,6.546875
1664986582966,0.21704102,-1.4758911,0.26727295,-16.328125,-12.84375,10.609375
1664986583012,-0.20727539,-0.93951416,0.38690186,-3.25,2.28125,-2.96875
1664986583040,0.0075683594,-1.2122192,0.2723999,3.515625,10.390625,9.328125
1664986583085,0.13647461,-1.2732544,0.30340576,-4.953125,6.4375,6.984375
1664986583115,-0.0021972656,-1.0005493,0.4196167,8.453125,3.296875,4.453125
1664986583159,0.23217773,-0.64678955,0.7057495,35.0,78.171875,-42.953125
1664986583197,0.02319336,-1.0256958,0.3241577,10.046875,2.71875,8.109375
1664986583205,0.03149414,-0.8508911,0.23309326,4.1875,1.921875,5.109375
1664986583236,-0.02734375,-0.7925415,0.307312,3.734375,0.34375,3.25
1664986583282,0.31640625,-0.4680786,0.840271,12.953125,70.4375,-31.875
1664986583326,-0.08520508,-0.79107666,1.2182007,10.796875,114.765625,-8.15625
1664986583335,0.8952637,-0.8850708,0.21234131,33.4375,59.75,4.671875
1664986583303,-0.04638672,-0.80010986,0.25579834,10.25,2.109375,1.046875
1664986583364,0.016113281,-0.7085571,0.18939209,10.203125,-1.9375,-1.25
1664986583350,0.07714844,-0.37701416,0.07513428,-447.10938,34.5625,-78.84375
1664986583365,0.7644043,-0.34991455,0.82977295,-25.703125,262.53125,16.5
1664986583371,0.6706543,-0.67755127,1.0648804,-192.75,113.78125,-8.8125
1664986583373,0.103759766,-0.68463135,0.9335327,-13.796875,100.03125,-27.890625
1664986583375,0.76586914,-0.65167236,0.59417725,-23.4375,39.78125,33.15625
1664986583378,0.63378906,-0.4751587,0.47088623,-53.296875,41.40625,5.171875
1664986583380,-2.4414062E-4,-0.86968994,0.2411499,-0.203125,-4.34375,0.703125
1664986583399,0.7023926,-0.43585205,0.51190186,-44.75,11.1875,-8.15625
1664986583409,0.7717285,-0.34576416,0.34588623,-27.84375,-13.046875,-23.40625
1664986583440,0.03930664,-0.5706177,0.2929077,-11.078125,-13.078125,-5.234375
1664986583476,-0.21655273,-0.7683716,0.42767334,-1.53125,-0.65625,2.125
1664986583479,0.49072266,-0.30133057,0.38739014,-69.65625,-3.890625,-8.578125
1664986583514,0.7104492,-0.4553833,0.47479248,-62.3125,4.25,-11.53125
1664986583518,-0.015380859,-0.87164307,0.30340576,-4.09375,-8.84375,-0.078125
1664986583553,-0.08520508,-0.78912354,0.36029053,-0.75,8.859375,-5.015625
1664986583568,-0.13549805,-0.9741821,0.3912964,0.359375,2.390625,-4.28125
1664986583595,0.6320801,-0.22052002,0.54193115,-43.84375,-20.109375,-15.25
1664986583620,0.8041992,-0.21588135,0.4730835,-43.171875,-7.59375,-6.734375
1664986583624,0.72753906,-0.21636963,0.4862671,-33.109375,-2.546875,-17.265625
1664986583633,0.2919922,-1.2659302,0.15179443,9.0,-1.953125,-1.171875
1664986583656,0.6381836,-0.085510254,0.5270386,-37.453125,16.796875,0.5625
1664986583663,0.41577148,-1.40802,0.33392334,2.5,-15.015625,0.125
1664986583669,0.4970703,-0.17901611,0.8305054,12.4375,-223.89062,-63.515625
1664986583708,-0.01171875,-1.2005005,0.57684326,4.515625,-10.28125,-0.984375
1664986583717,0.44921875,0.26556396,1.3444214,-144.98438,-144.23438,-128.14062
1664986583754,-0.0637207,-1.3457642,0.32855225,3.109375,-11.1875,-7.453125
1664986583761,0.064453125,-1.0730591,0.46502686,0.75,0.390625,-13.171875
1664986583790,0.07714844,-0.98321533,0.32196045,3.890625,-4.15625,-4.453125
1664986583836,-0.12207031,0.23626709,1.0614624,102.390625,-26.75,-55.640625
1664986583855,0.3203125,-0.34796143,0.885437,95.9375,2.71875,-86.328125
1664986583859,0.6809082,-0.79693604,0.62908936,-125.171875,33.796875,-30.03125
1664986583862,0.07519531,-0.83966064,0.28240967,6.25,-1.796875,-4.828125
1664986583879,0.013427734,-0.7625122,0.33099365,3.671875,-1.578125,-1.953125
1664986583910,0.4033203,-0.22686768,0.48358154,-209.45312,48.75,38.875
1664986583933,0.29858398,0.11956787,0.513855,-52.34375,-42.71875,-13.65625
1664986583948,0.0034179688,-0.73883057,0.32611084,5.21875,-2.65625,1.390625
1664986583959,0.22558594,0.009216309,0.9105835,-20.796875,-79.703125,-48.5625
1664986583977,0.045654297,-0.7468872,0.28411865,9.21875,3.890625,1.40625
1664986584000,0.41918945,0.0048217773,1.0419312,44.265625,-29.1875,19.203125
1664986584023,-0.006591797,-0.75177,0.35003662,-0.390625,0.078125,-0.96875
1664986584073,-0.10644531,-0.63775635,0.35809326,2.34375,12.140625,-6.703125
1664986584032,0.09033203,0.09490967,1.321228,26.8125,-15.859375,13.75
1664986584075,-0.049560547,-0.7749634,0.39349365,-2.453125,14.359375,-7.765625
1664986584106,0.43896484,0.10467529,0.6581421,-6.296875,-12.28125,31.421875
1664986584113,0.32666016,0.16912842,1.3139038,48.40625,-22.578125,15.1875
1664986584143,0.015136719,-0.817688,0.432312,-6.140625,10.328125,-4.875
1664986584150,0.14428711,-0.15509033,0.9279175,14.296875,-32.46875,6.859375
1664986584203,0.0087890625,-0.909729,0.35369873,-2.484375,7.078125,-1.546875
1664986584225,-0.021240234,-1.0015259,0.48382568,-2.65625,1.65625,2.171875
1664986584228,0.13574219,-0.025939941,0.9550171,-19.734375,27.625,8.625
1664986584233,0.32373047,-0.16949463,1.6168823,-62.359375,39.390625,3.46875
1664986584278,0.3400879,0.082458496,0.9850464,-35.03125,9.515625,-5.453125
1664986584294,0.07006836,-1.3555298,0.36346436,-9.5625,-7.8125,5.375
1664986584305,0.07885742,-1.114563,0.25213623,-7.09375,-10.875,4.875
1664986584318,-0.115234375,-1.4588013,0.35736084,-2.875,2.59375,5.953125
1664986584345,0.28979492,0.036315918,0.96380615,0.34375,27.359375,-11.734375
1664986584352,0.36083984,0.02166748,0.65960693,-22.15625,-4.890625,0.4375
1664986584382,0.018554688,-1.0525513,0.4039917,0.328125,16.8125,-0.8125
1664986584391,0.3088379,-0.1585083,1.211853,-9.3125,10.84375,-9.9375
1664986584429,0.119384766,-1.1746216,0.3522339,3.140625,-6.40625,7.5625
1664986584437,0.09350586,0.23406982,1.1642456,-1.359375,5.203125,-14.890625
1664986584458,-0.05493164,-0.9734497,0.25628662,9.015625,-0.109375,6.734375
1664986584468,-0.0063476562,-0.84698486,0.31903076,7.765625,0.890625,6.53125
1664986584511,0.42529297,0.23406982,0.97161865,-17.609375,-8.109375,6.359375
1664986584553,0.4169922,0.26971436,0.7731323,-13.359375,-25.46875,20.609375
1664986584567,0.18920898,0.030456543,1.0726929,13.890625,-27.703125,6.4375
1664986584576,-0.0034179688,-0.8086548,0.2868042,8.015625,2.359375,4.953125
1664986584586,-0.017089844,-0.7415161,0.25604248,3.5625,1.40625,2.171875
1664986584590,0.16259766,-0.17071533,1.213562,20.421875,-28.75,-0.125
1664986584607,-0.03100586,-0.84332275,0.31219482,2.015625,1.234375,2.9375
1664986584628,0.088134766,0.14178467,1.0582886,10.375,-97.296875,-18.671875
1664986584653,-0.010498047,-0.7415161,0.27386475,-0.734375,-1.296875,-0.296875
1664986584660,0.0068359375,-0.7029419,0.3180542,3.578125,-0.359375,2.984375
1664986584708,-0.041748047,-0.56451416,0.2999878,-0.28125,-4.8125,-1.359375
1664986584751,-0.05419922,-0.7608032,0.24822998,6.375,-10.53125,0.875
1664986584787,-0.21459961,-0.89263916,0.30389404,-5.640625,0.3125,-8.5
1664986584855,-0.06713867,-0.99542236,0.5075073,-11.140625,2.421875,-6.984375
1664986584870,-0.040771484,-0.11065674,1.484314,-37.828125,-71.703125,24.203125
1664986584876,-0.10498047,0.12347412,0.84417725,41.484375,-58.6875,-80.421875
1664986584882,0.06591797,-1.3357544,0.37176514,-7.84375,4.296875,-5.078125
1664986584901,-0.107666016,-0.29278564,1.0309448,137.78125,-71.671875,-37.765625
1664986584907,-0.1586914,-0.32476807,1.0700073,138.90625,-68.171875,-36.40625
1664986584911,-0.29174805,-0.5093384,1.2216187,23.265625,-35.21875,-17.03125
1664986584914,-0.32250977,-0.29693604,1.0507202,-68.75,4.90625,-21.375
1664986584917,-0.3774414,-0.44903564,0.9442749,-69.265625,2.28125,-26.265625
1664986584937,0.29736328,-1.3516235,0.46063232,-4.671875,-5.84375,0.90625
1664986584977,0.2709961,-1.1362915,0.369812,3.75,-23.703125,3.3125
1664986584990,-0.16723633,-1.4058228,0.5336304,12.609375,-9.59375,5.0625
1664986585023,-0.1862793,-0.14385986,0.85491943,-82.421875,-3.0,-17.140625
1664986585028,-0.26489258,0.0446167,0.4537964,17.296875,-33.71875,8.90625
1664986585043,-0.16259766,-0.16802979,0.8344116,61.921875,-98.15625,1.03125
1664986585049,0.026123047,-1.0806274,0.3920288,-1.71875,-5.609375,-10.078125
1664986585071,-0.015136719,-1.00177,0.3859253,1.453125,-0.484375,-5.109375
1664986585111,-0.7902832,0.6586304,0.87542725,-234.45312,-125.984375,-162.4375
1664986585118,0.072509766,-0.80059814,0.30755615,7.953125,3.78125,-8.03125
1664986585144,-0.0107421875,-0.71881104,0.3546753,5.875,6.71875,-4.09375
1664986585186,0.03564453,-0.7659302,0.33880615,7.609375,12.671875,-2.140625
1664986585217,0.02758789,-0.7197876,0.276062,6.03125,11.296875,-3.0
1664986585260,-0.007080078,-0.7542114,0.34783936,3.140625,6.90625,-4.296875
1664986585303,-0.079833984,-0.6411743,0.39788818,2.5625,11.0625,-7.984375
1664986585335,-0.044433594,-0.76153564,0.32659912,0.15625,15.828125,-7.5
1664986585382,0.13378906,-0.83795166,0.40301514,-1.3125,15.53125,2.46875
1664986585426,0.030761719,-0.83013916,0.46209717,-7.421875,-5.109375,5.875
1664986585455,-1.3024902,0.7885132,0.58465576,-91.25,-294.59375,-161.65625
1664986585492,-1.3862305,0.46844482,0.2748413,77.453125,-306.59375,-234.96875
1664986585501,-0.08935547,-1.013977,0.47943115,-4.5625,-4.796875,7.0625
1664986585504,0.0690918,-1.3655396,0.3649292,-13.796875,-4.84375,8.078125
1664986585578,0.06274414,-1.0896606,0.33221436,-9.984375,-5.0,1.703125
1664986585582,0.08520508,-1.364563,0.34344482,-3.5625,5.890625,8.109375
1664986585656,0.029052734,-1.0610962,0.4821167,4.328125,9.421875,-0.40625
1664986585661,0.05419922,-1.1814575,0.41204834,0.9375,-3.09375,4.421875
1664986585714,-0.79711914,0.19451904,0.08831787,-36.234375,-42.171875,-171.53125
1664986585732,-0.015625,-0.97857666,0.32391357,8.296875,4.1875,1.6875
1664986585746,-1.0534668,0.7687378,-0.27374268,-86.125,-88.609375,-61.234375
1664986585762,-0.47094727,0.8661499,-0.10650635,-67.328125,-65.734375,1.734375
1664986585767,-0.33276367,0.9298706,-0.4602661,-47.8125,-15.46875,-1.296875
1664986585771,0.057373047,-0.84625244,0.30267334,9.671875,4.3125,4.015625
1664986585773,0.017822266,-0.80059814,0.25164795,10.28125,0.84375,2.296875
1664986585814,-0.049316406,1.3517456,0.3131714,36.671875,-90.9375,-68.34375
1664986585853,0.0021972656,-0.7258911,0.27850342,12.796875,1.15625,0.8125
1664986585860,0.0126953125,-0.8296509,0.28411865,8.609375,-8.125,3.3125
1664986585893,-0.05053711,-0.6465454,0.2609253,4.5,-9.0,-0.5625
1664986585939,-0.084472656,-0.7883911,0.32537842,-3.234375,-2.296875,0.5
1664986585981,-0.5341797,0.62957764,-0.5005493,115.59375,-17.125,-80.421875
1664986586001,-0.30126953,0.8016968,-0.6448364,-58.765625,58.484375,29.984375
1664986586010,-0.46826172,0.98724365,-0.2720337,-69.109375,22.234375,25.03125
1664986586008,-0.057128906,-0.62628174,0.24017334,3.140625,4.296875,-2.984375
1664986586012,-0.107421875,-0.78375244,0.39105225,-2.671875,17.328125,3.8125
1664986586055,-0.01928711,-0.89385986,0.35516357,-2.78125,14.0,3.5
1664986586100,-0.3095703,0.8641968,-0.41680908,14.0625,-28.4375,-1.890625
1664986586108,-0.31933594,0.684021,-0.08380127,36.46875,-16.40625,-0.453125
1664986586111,-0.40234375,1.0612183,-0.25738525,21.609375,34.609375,4.09375
1664986586115,0.10473633,-1.2039185,0.3612671,-1.4375,11.46875,3.671875
1664986586129,0.3449707,-1.3796997,0.34246826,-1.0,-0.140625,2.875
1664986586206,0.21411133,-1.1936646,0.48773193,7.8125,-7.546875,1.828125
1664986586209,-0.7145996,0.69940186,-0.11846924,-56.40625,20.984375,-48.765625
1664986586214,-0.35668945,0.7753296,-0.1873169,-20.125,24.578125,9.078125
1664986586219,-0.01953125,1.1351929,-0.6343384,-0.9375,58.671875,-3.515625
1664986586244,-0.32128906,0.8588257,-0.56036377,-28.25,-26.265625,-35.984375
1664986586250,0.008544922,-1.4116821,0.3756714,1.859375,2.75,0.796875
1664986586252,-0.94506836,0.8973999,-0.3291626,-264.96875,68.4375,24.8125
1664986586254,0.18237305,-1.1570435,0.40081787,13.359375,5.9375,-11.5625
1664986586298,0.44262695,0.09686279,-0.92022705,202.6875,165.51562,120.828125
1664986586318,0.13989258,-0.98809814,0.34613037,6.890625,6.734375,-9.296875
1664986586325,-0.6401367,0.38909912,-0.68414307,34.546875,-0.015625,-8.546875
1664986586348,-0.9902344,0.78533936,-0.02960205,0.15625,40.359375,-60.640625
1664986586355,0.17358398,-0.9067993,0.30950928,9.40625,-1.625,-2.34375
1664986586401,0.022705078,-0.7427368,0.276062,7.671875,1.796875,-4.0625
1664986586414,0.075683594,-0.7468872,0.24188232,10.8125,1.59375,-3.375
1664986586446,-0.5637207,0.6119995,-0.14141846,11.40625,34.921875,9.109375
1664986586453,-1.2329102,0.9970093,0.5350952,48.90625,45.515625,-13.203125
1664986586461,-0.23339844,0.7914429,-0.008361816,311.0,161.4375,-48.3125
1664986586466,-0.7468262,0.36419678,0.34490967,-0.046875,43.953125,-14.171875
1664986586501,0.083984375,-0.75445557,0.24725342,4.953125,0.109375,-5.25
1664986586519,-0.7873535,0.52020264,0.27435303,0.671875,16.578125,24.890625
1664986586526,-0.6711426,0.61712646,0.82733154,-42.0625,-2.921875,30.5
1664986586534,-0.5671387,0.66448975,0.5595093,33.90625,31.453125,-4.640625
1664986586530,0.032714844,-0.6121216,0.31170654,5.875,4.59375,-11.625
1664986586534,-1.184082,0.5289917,0.88934326,90.359375,138.85938,-88.984375
1664986586537,-0.015136719,-0.7490845,0.35369873,-9.328125,14.578125,-11.9375
1664986586565,0.021728516,-0.7866821,0.38446045,-8.328125,7.390625,-9.125
1664986586612,-0.056884766,1.0199585,0.7003784,195.23438,64.546875,35.046875
1664986586634,-0.75219727,0.29730225,1.7560425,17.8125,3.390625,1.859375
1664986586641,-0.01171875,-0.9011841,0.30706787,-2.921875,0.84375,-5.46875
1664986586642,-0.5029297,0.24383545,0.56048584,-28.015625,22.671875,18.5625
1664986586644,-0.27294922,0.101989746,0.8336792,39.828125,-30.09375,5.875
1664986586678,0.05859375,-0.892395,0.44622803,-0.515625,0.4375,-0.734375
1664986586686,-0.21386719,0.5985718,1.0092163,87.28125,11.90625,-15.8125
1664986586692,0.025878906,-1.0979614,0.38079834,-9.75,-8.46875,3.609375
1664986586731,0.27026367,-1.4609985,0.18841553,-0.109375,-9.625,8.53125
1664986586761,-0.03930664,-0.94537354,0.29534912,-3.921875,-6.75,3.671875
1664986586807,0.09301758,-1.3132935,0.23187256,8.140625,-0.34375,10.09375
1664986586854,-1.0500488,0.576355,0.49456787,105.34375,-7.21875,47.453125
1664986586871,-0.74121094,0.21575928,1.5231323,17.765625,38.78125,-12.734375
1664986586875,-0.4958496,0.2982788,1.0890503,11.46875,24.59375,1.9375
1664986586878,-0.0048828125,-1.2124634,0.39764404,4.609375,3.65625,6.703125
1664986586880,0.09399414,-1.1150513,0.30340576,8.53125,-1.6875,5.421875
1664986586926,-0.0034179688,0.6766968,0.8744507,22.625,21.125,-53.328125
1664986586948,1.999939,-0.42388916,1.03656,44.28125,-62.84375,-180.10938
1664986586954,-0.97509766,1.2836304,1.3966675,-120.3125,56.625,-56.9375
1664986586960,-0.23803711,0.24627686,-0.43218994,-188.0,-252.39062,-173.04688
1664986586966,0.043701172,-0.97857666,0.23895264,7.171875,0.8125,2.9375
1664986586970,-2.0,-0.004699707,0.5487671,-109.234375,-438.71875,-153.82812
1664986586973,0.020019531,-0.85479736,0.27215576,8.234375,3.046875,0.546875
1664986587004,0.0031738281,-0.85040283,0.29022217,4.5,-1.90625,0.65625
1664986587076,0.020507812,-0.7539673,0.23406982,1.609375,-1.515625,0.859375
1664986587093,0.001953125,-0.82476807,0.2699585,0.375,-2.46875,1.59375
1664986587120,-1.8459473,1.2504272,0.47528076,-512.0,-77.859375,31.65625
1664986587142,-0.23901367,0.9645386,0.7843628,286.875,-225.07812,-157.95312
1664986587147,0.011230469,-0.78497314,0.2662964,-4.25,-4.125,0.78125
1664986587198,-0.038330078,-0.71954346,0.3209839,-2.84375,-5.703125,-0.15625
1664986587203,-0.052490234,-0.7468872,0.34124756,-1.875,-4.359375,-0.21875
1664986587241,-0.12231445,-0.722229,0.2892456,-2.390625,-4.4375,-3.390625
1664986587286,-0.5632324,0.7572632,0.09661865,-152.17188,173.3125,-145.82812
1664986587292,-0.040039062,-0.8855591,0.4015503,-1.15625,4.265625,-2.296875
1664986587316,-0.047851562,-0.95196533,0.45281982,-12.625,2.609375,-3.90625
1664986587365,0.13256836,-1.1358032,0.36810303,8.4375,13.1875,-0.578125
1664986587434,0.34985352,-1.3657837,0.24017334,-2.21875,5.046875,0.734375
1664986587438,0.2265625,-1.128479,0.31195068,2.71875,-13.90625,4.3125
1664986587496,-0.0061035156,-1.373352,0.36639404,6.875,-0.59375,6.078125
1664986587525,0.12915039,-1.1238403,0.39154053,4.546875,0.296875,-4.671875
1664986587554,0.13085938,-1.0161743,0.33953857,3.84375,3.140625,-2.09375
1664986587600,0.13647461,-0.8718872,0.27703857,11.046875,-1.0,-1.875
1664986587628,0.021484375,-0.7866821,0.32977295,12.609375,-0.875,-4.71875
1664986587674,-0.26782227,0.6569214,-0.28424072,-99.03125,184.4375,-110.875
1664986587715,-0.21118164,0.73553467,-0.20098877,-142.54688,276.28125,-59.3125
1664986587720,0.09423828,-0.81329346,0.25726318,13.625,-2.96875,-1.96875
1664986587750,0.040283203,-0.7749634,0.26727295,2.296875,-2.59375,-2.953125
1664986587755,0.03540039,-0.7893677,0.22991943,0.609375,1.40625,-2.703125
1664986587825,-0.6347656,0.2584839,-0.91241455,-126.984375,-110.84375,139.9375
1664986587832,-0.0087890625,-0.7546997,0.35687256,-6.53125,6.859375,-8.1875
1664986587839,-0.23535156,0.9945679,-0.20953369,-73.671875,-124.359375,161.34375
1664986587851,-0.31103516,0.6889038,0.1473999,-9.65625,-62.96875,14.390625
1664986587856,-0.0068359375,-0.7996216,0.33880615,-4.0,7.703125,-7.59375
1664986587868,0.020019531,-0.84259033,0.30023193,-2.9375,6.375,-3.078125
1664986587920,-0.068603516,0.729187,-1.0835571,44.5625,185.60938,-53.46875
1664986587952,-0.5788574,-0.44317627,-0.9092407,-114.765625,-20.515625,29.578125
1664986587957,0.0063476562,-0.87628174,0.38128662,-4.0625,11.6875,-1.421875
1664986587959,-0.15478516,-0.077941895,-0.6741333,-52.859375,46.828125,13.109375
1664986587966,0.07080078,-0.89141846,0.40985107,-7.296875,8.4375,-3.265625
1664986587988,0.1105957,-1.208313,0.40374756,-12.96875,-3.921875,2.78125
1664986588034,-0.23168945,0.18109131,-1.5171509,-211.78125,-75.96875,53.625
1664986588043,-0.13574219,0.008239746,-0.64190674,-10.421875,-15.859375,37.796875
1664986588056,-0.06567383,-0.026916504,-0.8052368,121.734375,-83.140625,0.921875
1664986588061,0.2590332,-1.300354,0.20697021,-0.84375,-6.140625,12.046875
1664986588079,0.13549805,-0.0803833,-0.9636841,2.5,-1.125,-0.296875
1664986588087,0.13574219,-0.06744385,-0.9663696,1.078125,-0.046875,-0.46875
1664986588090,0.13842773,-0.05645752,-0.958313,0.359375,-0.09375,0.203125
1664986588103,-0.07348633,-0.97784424,0.33319092,-2.171875,5.921875,1.734375
1664986588112,0.13598633,-0.059387207,-0.97247314,0.125,0.15625,0.765625
1664986588135,0.14379883,-1.406311,0.2748413,-1.984375,2.53125,4.4375
1664986588155,0.08569336,-1.1316528,0.33563232,3.234375,7.5,-0.5625
1664986588185,0.12451172,-0.062561035,-0.97003174,0.015625,0.1875,0.9375
1664986588208,0.12695312,-0.0791626,-0.9734497,0.515625,0.484375,0.53125
1664986588212,0.13232422,-0.074523926,-0.96417236,0.9375,0.125,-0.09375
1664986588217,0.12866211,-0.08331299,-0.96832275,1.234375,-0.53125,-0.625
1664986588221,0.14111328,-0.08917236,-0.9668579,-0.09375,-0.921875,-0.328125
1664986588226,0.14794922,-0.061340332,-0.96051025,0.109375,-0.578125,0.5625
1664986588229,0.1171875,-1.067688,0.30316162,4.921875,0.03125,4.640625
1664986588232,0.14379883,-0.05987549,-0.98150635,0.265625,0.328125,0.15625
1664986588234,0.14282227,-0.07232666,-0.9607544,1.203125,-0.765625,0.71875
1664986588238,0.125,-0.057678223,-0.9534302,1.6875,-1.140625,1.453125
1664986588253,0.037597656,-0.87823486,0.24017334,12.390625,1.734375,4.09375
1664986588279,0.02758789,-0.78131104,0.28167725,8.921875,1.625,4.65625
1664986588306,0.12475586,-0.073791504,-0.99835205,3.53125,-0.703125,-0.375
1664986588344,0.13330078,-0.07647705,-0.9624634,1.265625,-1.75,-1.953125
1664986588348,0.0029296875,-0.85894775,0.25531006,6.625,-3.359375,1.421875
1664986588354,0.10083008,-0.08673096,-0.9627075,0.046875,1.546875,-0.796875
1664986588359,0.028076172,-0.7715454,0.21429443,5.90625,-1.5,-0.5
1664986588396,0.00390625,-0.8323364,0.27630615,0.28125,-4.03125,-0.0625
1664986588425,0.13989258,-0.08502197,-0.97735596,1.0,-0.734375,1.390625
1664986588434,0.14013672,-0.057922363,-0.95025635,-0.546875,0.234375,-1.171875
1664986588464,-0.017089844,-0.7505493,0.25164795,1.859375,-2.84375,-2.3125
1664986588473,0.15356445,-0.08795166,-0.9697876,2.9375,-0.9375,-0.0625
1664986588508,0.1459961,-0.06549072,-0.9595337,1.21875,-0.578125,1.296875
1664986588536,-0.031982422,-0.70098877,0.33514404,-5.203125,-1.875,-3.3125
1664986588546,-0.059814453,-0.7913208,0.2831421,-5.484375,-8.0625,-5.09375
1664986588550,0.13110352,-0.059631348,-0.95196533,2.4375,-2.234375,1.015625
1664986588568,-0.08666992,-0.81134033,0.387146,-5.28125,1.484375,-7.34375
1664986588627,-0.09057617,-0.8989868,0.3973999,-6.171875,-3.671875,-7.71875
1664986588619,0.14355469,-0.04888916,-0.9898071,1.359375,-0.3125,1.953125
1664986588628,-0.06982422,-0.9505005,0.36419678,1.96875,4.78125,-10.875
1664986588698,0.11694336,-0.053771973,-0.9397583,-1.625,-0.078125,0.59375
1664986588702,0.1574707,-0.07867432,-0.98516846,1.5625,0.09375,-0.375
1664986588709,0.1796875,-1.3423462,0.23236084,0.859375,-9.609375,-2.46875
1664986588711,0.13867188,-0.051818848,-0.95147705,0.71875,-0.203125,-0.5625
1664986588716,0.37939453,-1.2190552,0.21063232,9.65625,-13.4375,1.9375
1664986588785,0.13623047,-1.4900513,0.47869873,-7.34375,-12.515625,-2.90625
1664986588787,0.1784668,-0.06060791,-0.95562744,3.953125,-6.453125,3.28125
1664986588810,0.17553711,-0.038146973,-0.9307251,0.4375,3.625,2.375
1664986588816,-0.07104492,-1.1245728,0.3637085,11.1875,-1.828125,-7.78125
1664986588833,0.14086914,-0.024230957,-0.9800415,2.75,-4.921875,5.546875
1664986588852,0.0031738281,-1.0122681,0.31829834,5.4375,1.671875,-6.078125
1664986588861,0.122802734,-1.0176392,0.32513428,7.546875,-1.671875,1.71875
1664986588904,0.01586914,-0.73883057,0.2538452,6.109375,7.4375,-1.703125
1664986588950,0.13623047,-0.049865723,-0.9871216,1.390625,-0.671875,4.234375
1664986588956,0.118652344,-0.0713501,-0.96832275,1.5625,1.125,4.03125
1664986588958,0.13012695,-0.04815674,-0.96832275,4.328125,1.265625,2.96875
1664986588973,0.052978516,-0.7593384,0.31365967,11.140625,2.984375,-0.46875
1664986588983,0.13769531,-0.04156494,-0.94976807,0.671875,4.375,0.578125
1664986588986,0.041992188,-0.8032837,0.2699585,10.4375,0.953125,0.921875
1664986589025,0.1652832,-0.05206299,-0.9849243,0.734375,0.0,0.3125
1664986589031,0.04248047,-0.74298096,0.2477417,3.171875,2.078125,1.34375
1664986589068,0.028320312,-0.73321533,0.3378296,5.6875,4.5625,-1.34375
1664986589100,-0.028564453,-0.6729126,0.3817749,1.53125,8.28125,0.25
1664986589148,0.048583984,-0.923645,0.34906006,-3.640625,6.703125,-0.9375
1664986589177,0.12841797,-0.015197754,-0.9758911,-0.921875,1.796875,-1.171875
1664986589200,0.12207031,-0.043518066,-1.0025024,0.515625,-1.03125,-0.828125
1664986589215,0.12915039,-0.057922363,-0.94976807,0.9375,-0.015625,-0.359375
1664986589222,0.1381836,-0.0335083,-0.956604,0.28125,2.203125,-1.515625
1664986589228,0.14135742,-0.06964111,-0.9734497,0.546875,0.671875,-0.453125
1664986589232,0.0061035156,-0.89923096,0.42401123,-9.0625,-4.140625,0.359375
1664986589251,-0.056152344,-1.0698853,0.354187,-5.96875,-3.734375,3.3125
1664986589263,0.18457031,-1.366272,0.27996826,-15.796875,-13.390625,6.78125
1664986589295,0.1274414,-0.054016113,-0.9456177,-1.3125,3.53125,-1.25
1664986589305,0.15454102,-0.045715332,-0.973938,-0.078125,2.15625,0.3125
1664986589308,0.11669922,-0.019104004,-0.9807739,-0.09375,1.71875,-0.671875
1664986589350,0.119628906,-1.0046997,0.14056396,-3.375,-4.265625,5.25
1664986589370,0.033203125,-1.2351685,0.34051514,-3.03125,3.015625,5.6875
1664986589386,0.13696289,-0.02935791,-0.9854126,1.265625,0.203125,0.296875
1664986589409,0.12036133,-1.321106,0.26531982,-2.1875,-1.890625,4.75
1664986589417,0.15478516,-0.034973145,-0.95098877,0.3125,0.8125,0.171875
1664986589422,0.08959961,-1.0842896,0.293396,2.84375,-2.328125,3.3125
1664986589460,0.0017089844,-0.97540283,0.32196045,10.203125,0.890625,5.046875
1664986589505,0.06689453,-0.84381104,0.18133545,10.828125,-0.203125,6.9375
1664986589536,0.052490234,-0.7671509,0.21722412,6.5625,5.40625,4.03125
1664986589585,0.14428711,-0.032287598,-0.9517212,1.0,1.859375,0.21875
1664986589595,0.11279297,-0.046936035,-0.97784424,3.703125,0.0,0.96875
1664986589602,-0.08154297,-0.84552,0.21795654,4.875,0.46875,5.296875
1664986589611,0.0234375,-0.8064575,0.2748413,7.515625,4.59375,1.09375
1664986589656,0.022460938,-0.74542236,0.26654053,1.515625,0.734375,-0.28125
1664986589703,-0.021972656,-0.74176025,0.3180542,0.78125,-1.890625,-1.859375
1664986589731,0.12597656,-0.0178833,-0.9697876,0.8125,0.265625,0.75
1664986589756,0.15771484,-0.045715332,-0.97491455,0.015625,-0.171875,0.0625
1664986589763,0.08666992,-0.046203613,-0.98101807,0.234375,0.546875,0.125
1664986589771,-0.022216797,-0.7698364,0.27044678,3.796875,-6.71875,-1.40625
1664986589776,-0.06225586,-0.8555298,0.32635498,2.25,1.9375,-2.34375
1664986589819,-0.027832031,-0.85235596,0.32000732,-1.4375,5.71875,-6.3125
1664986589853,0.10107422,-0.046447754,-0.97198486,0.390625,0.03125,-0.28125
1664986589859,0.1262207,-0.0413208,-0.973938,-0.421875,0.40625,-0.875
1664986589865,-0.029296875,-0.8953247,0.32757568,-0.671875,6.90625,-8.09375
1664986589898,0.12719727,-0.034240723,-0.96417236,0.0625,0.953125,-1.03125
1664986589905,0.24072266,-1.1868286,0.23162842,3.171875,-3.046875,0.5625
1664986589942,0.1887207,-1.2390747,0.15057373,5.578125,-0.890625,-6.953125
1664986589969,0.14575195,-0.042297363,-0.9668579,-1.3125,0.765625,-0.28125
1664986590054,0.25463867,-1.2212524,0.21600342,6.265625,-5.703125,-1.90625
1664986590054,0.17797852,-0.014953613,-0.9651489,2.09375,-0.28125,1.53125
1664986590054,0.12890625,-0.015686035,-0.94537354,1.3125,3.171875,1.015625
1664986590063,0.1303711,-0.031555176,-0.9649048,3.09375,1.53125,2.078125
1664986590071,0.14160156,-1.3640747,0.35858154,3.390625,-3.453125,1.375
1664986590073,0.14404297,-0.033996582,-0.991272,0.1875,1.640625,2.171875
1664986590075,0.10986328,-0.02911377,-0.9522095,0.140625,1.765625,3.640625
1664986590080,0.05102539,-0.021057129,-0.95880127,-0.21875,8.0,2.40625
1664986590084,0.032958984,-1.11969,0.27386475,1.109375,-1.78125,-8.625
1664986590088,0.10498047,-0.049621582,-0.9780884,-2.484375,12.59375,-0.171875
1664986590088,0.16064453,-1.0886841,0.26141357,2.296875,-1.484375,-5.03125
1664986590187,0.10205078,-0.038635254,-1.00177,0.171875,4.640625,-0.515625
1664986590186,0.026611328,-0.878479,0.2868042,2.953125,-0.09375,-3.375
1664986590191,0.08325195,-0.046447754,-0.99346924,6.015625,-3.6875,-1.484375
1664986590196,0.10229492,-0.020568848,-0.9631958,1.46875,-1.5,-1.890625
1664986590203,0.056396484,-0.7473755,0.2267456,10.875,5.375,-2.828125
1664986590211,0.08105469,-0.03326416,-0.973938,0.984375,5.25,-3.0
1664986590215,0.06665039,-0.7659302,0.2616577,12.328125,2.421875,-0.40625
1664986590254,0.0014648438,-0.6499634,0.20770264,12.6875,3.75,-0.859375
1664986590285,0.08886719,-0.75445557,0.27703857,5.953125,11.78125,0.40625
1664986590332,0.080322266,-0.0725708,-0.96417236,-0.625,2.71875,0.0
1664986590337,0.10424805,-0.039367676,-0.9963989,-0.75,0.78125,1.15625
1664986590372,0.045166016,-0.7102661,0.30706787,0.0625,3.4375,2.390625
1664986590368,0.08691406,0.0045776367,-0.9421997,-0.140625,4.0625,1.25
1664986590375,0.06616211,-0.031311035,-0.98687744,-0.0625,6.828125,0.28125
1664986590382,0.06689453,-0.89190674,0.19036865,-2.921875,-2.15625,0.078125
1664986590409,0.080566406,-0.054260254,-0.9939575,0.625,3.109375,1.046875
1664986590443,0.092041016,-0.81036377,0.35321045,-4.71875,-8.46875,-0.78125
1664986590451,-0.09692383,-0.9746704,0.30999756,-8.1875,-17.015625,-4.296875
1664986590497,0.20483398,-1.4863892,0.10491943,-9.28125,-5.4375,4.234375
1664986590529,0.17016602,-1.1138306,0.19036865,1.921875,-11.890625,4.03125
1664986590570,-0.046142578,-1.3313599,0.32122803,-2.125,-5.015625,5.109375
1664986590609,0.06274414,-0.008850098,-0.960022,0.390625,3.1875,0.78125
1664986590636,0.09765625,-1.3875122,0.15618896,1.078125,-5.390625,-0.046875
1664986590643,0.10107422,-1.0205688,0.2838745,4.96875,-1.828125,-0.25
1664986590691,0.008056641,-0.9898071,0.21697998,-1.75,-4.828125,4.453125
1664986590722,-0.03955078,-0.85528564,0.16790771,7.640625,3.03125,0.109375
1664986590799,0.034423828,-0.81207275,0.2374878,2.09375,2.828125,1.609375
1664986590811,0.028564453,-0.8394165,0.23504639,2.625,0.359375,3.59375
1664986590839,0.07543945,-0.0032348633,-0.9483032,1.109375,2.15625,-0.21875
1664986590877,0.030029297,0.018737793,-0.8557739,-5.859375,3.984375,-1.75
1664986590882,0.014160156,-0.848938,0.24359131,-1.828125,-2.890625,2.71875
1664986590903,-0.027832031,0.03265381,-0.89019775,-19.953125,3.640625,-4.015625
1664986590923,0.04638672,-0.08892822,-1.0130005,-31.890625,1.140625,-7.015625
1664986590928,0.011962891,-0.76446533,0.24945068,0.140625,-1.390625,0.71875
1664986590933,-0.048828125,-0.86065674,0.3085327,-2.921875,-0.4375,-1.484375
1664986590962,0.07324219,-0.16583252,-1.0747681,-32.015625,-11.671875,-4.6875
1664986590984,-0.032470703,-0.66412354,0.21429443,0.5,-6.3125,-3.71875
1664986591007,0.07055664,-0.18560791,-0.9246216,-24.9375,-4.0625,-4.390625
1664986591058,0.0146484375,-0.72662354,0.27459717,2.1875,-1.53125,3.421875
1664986591082,-0.12109375,-0.87091064,0.3007202,-3.921875,-4.9375,1.828125
1664986591092,0.049072266,-0.21783447,-0.9595337,-27.796875,19.796875,-8.203125
1664986591122,0.044677734,-0.2354126,-0.9553833,-17.609375,1.109375,-5.859375
1664986591125,-0.079589844,-0.956604,0.31707764,-1.515625,0.328125,-1.3125
1664986591129,0.064453125,-0.33868408,-0.97540283,-12.234375,-6.5625,-3.9375
1664986591130,0.11425781,-0.36383057,-0.9985962,-6.390625,-9.265625,-1.15625
1664986591133,0.05078125,-0.3411255,-0.9614868,3.40625,-2.953125,2.796875
1664986591137,0.0024414062,-0.26324463,-0.95758057,7.859375,-1.203125,2.0
1664986591140,0.027832031,-0.21881104,-0.87823486,3.46875,-4.234375,-1.125
1664986591143,0.06225586,-0.25616455,-0.9312134,0.765625,-4.546875,-3.546875
1664986591146,0.14575195,-0.23614502,-0.9006958,-0.140625,-1.640625,-4.53125
1664986591148,0.08984375,-0.26983643,-0.9981079,0.234375,-2.625,-1.375
1664986591150,-0.099365234,-1.0542603,0.34173584,-4.296875,-1.75,-6.203125
1664986591153,0.21508789,-1.3067017,0.21038818,-3.921875,5.234375,-6.875
1664986591201,0.06665039,-0.2852173,-1.0261841,0.140625,-14.6875,-0.453125
1664986591208,0.20678711,-0.26470947,-0.80059814,-0.578125,-3.453125,-1.03125
1664986591223,0.055419922,-0.2510376,-1.0256958,1.125,-0.484375,-1.390625
1664986591230,0.24951172,-1.1035767,0.3571167,3.0625,1.875,-7.359375
1664986591275,0.040771484,-1.3137817,0.2970581,6.421875,-0.875,-6.015625
1664986591279,0.06713867,-0.24713135,-0.9277954,0.734375,-9.421875,-1.4375
1664986591297,0.18237305,-1.3406372,0.3529663,2.90625,0.125,-4.546875
1664986591337,0.021972656,-1.1184692,0.2819214,0.421875,-1.78125,-7.40625
1664986591367,0.11767578,-1.0039673,0.24945068,4.359375,-4.265625,-2.84375
1664986591396,0.038330078,-0.76885986,0.29510498,3.28125,-3.515625,-5.375
1664986591470,0.0041503906,-0.8135376,0.25604248,5.984375,3.203125,-1.296875
1664986591485,0.13549805,-0.23175049,-0.96954346,-1.5625,-18.328125,-4.796875
1664986591492,0.15600586,-0.24761963,-0.87579346,-3.359375,-18.4375,-7.921875
1664986591501,0.21435547,-0.27960205,-0.8562622,3.328125,-1.765625,-6.109375
1664986591511,0.034179688,-0.75665283,0.24822998,7.453125,2.03125,-0.5625
1664986591518,0.08935547,-0.2432251,-1.0422974,-5.375,-11.140625,-6.421875
1664986591570,0.16015625,-0.13702393,-0.8328247,4.140625,-8.546875,-28.046875
1664986591584,0.42504883,-0.39605713,-0.93463135,2.28125,11.5625,-23.359375
1664986591588,0.11743164,-0.24957275,-0.7683716,-5.890625,-2.46875,-8.40625
1664986591592,0.055419922,-0.81329346,0.23529053,4.6875,4.265625,1.453125
1664986591595,0.0034179688,-0.7637329,0.2892456,1.65625,3.875,-0.953125
1664986591600,-0.05517578,-0.68170166,0.29681396,0.71875,7.625,-4.625
1664986591635,-0.061523438,-0.803772,0.36663818,0.15625,7.609375,-7.3125
1664986591681,0.12451172,-0.4446411,-0.91363525,25.875,-12.125,-1.453125
1664986591704,0.0024414062,-0.8267212,0.33148193,2.765625,5.796875,-4.140625
1664986591714,0.057861328,-0.93048096,0.33514404,-4.15625,3.375,-1.796875
1664986591756,-0.0021972656,-0.9714966,0.40985107,-4.75,-4.59375,0.0625
1664986591800,0.10644531,-1.416565,0.36932373,-14.5625,-5.015625,7.921875
1664986591832,0.15942383,-1.2280884,-0.018371582,-10.8125,-21.90625,7.640625
1664986591878,-0.03100586,-0.2695923,-0.98516846,11.1875,1.8125,2.671875
1664986591898,-0.16235352,-1.1397095,0.51239014,-9.671875,7.171875,0.859375
1664986591919,0.12866211,-1.3110962,0.14422607,7.453125,-2.734375,7.71875
1664986591948,0.048095703,-1.1455688,0.3414917,0.015625,-3.46875,6.90625
1664986591993,0.18237305,-0.23175049,-0.8423462,2.078125,2.140625,-3.203125
1664986592033,-0.05493164,-0.987854,0.25872803,11.0625,-2.078125,6.125
1664986592040,0.047851562,-0.82891846,0.2850952,13.640625,3.328125,5.59375
1664986592085,-0.020507812,-0.83721924,0.27801514,5.1875,-2.375,5.6875
1664986592119,-0.0126953125,-0.81329346,0.20770264,7.1875,1.875,2.8125
1664986592144,0.1850586,-0.3225708,-0.96051025,1.015625,2.609375,-9.578125
1664986592166,0.12768555,-0.3303833,-0.99542236,1.375,0.078125,-4.03125
1664986592171,0.095458984,-0.30474854,-0.8633423,1.90625,2.125,-0.671875
1664986592175,0.16210938,-0.20562744,-0.9561157,3.8125,-6.5625,1.875
1664986592180,-0.014404297,-0.80718994,0.24676514,6.203125,2.9375,-0.4375
1664986592220,-0.012939453,-0.8584595,0.25872803,0.5,0.78125,-1.9375
1664986592237,0.0075683594,-0.6826782,0.24041748,-0.421875,-3.234375,0.171875
1664986592265,-0.037109375,-0.76763916,0.2592163,-0.25,-0.515625,3.796875
1664986592345,-0.07836914,-0.7295532,0.24285889,-4.109375,-7.640625,0.421875
1664986592361,-0.08642578,-0.8401489,0.2999878,-8.03125,0.140625,-1.390625
1664986592386,-0.050048828,-0.8616333,0.32757568,-7.0,0.984375,-5.765625
1664986592430,-0.1315918,-1.0195923,0.45428467,-12.9375,5.03125,-5.703125
1664986592475,0.2355957,-1.2427368,0.12908936,2.5625,12.09375,-3.1875
1664986592505,0.43920898,-1.2893677,0.43182373,-7.640625,-6.640625,-4.46875
1664986592583,-0.17700195,-1.102356,0.45135498,9.734375,-19.296875,-12.046875
1664986592595,0.12719727,-1.4873657,0.30926514,9.9375,3.609375,1.515625
1664986592626,0.14038086,-1.1895142,0.35736084,1.953125,-4.078125,-9.984375
1664986592672,0.02319336,-1.0056763,0.27459717,9.765625,1.328125,-0.765625
1664986592702,-0.013183594,-0.8377075,0.29119873,10.0,6.8125,-6.015625
1664986592746,-0.026367188,-0.7017212,0.28070068,10.03125,5.40625,-6.078125
1664986592790,0.07104492,-0.78619385,0.2501831,7.890625,8.203125,-1.046875
1664986592819,0.123291016,-0.21221924,-0.93927,-3.84375,-8.953125,-6.203125
1664986592872,0.20166016,-0.37213135,-0.956604,-1.0625,-8.9375,-7.28125
1664986592875,0.20214844,-0.33868408,-0.8274536,-1.71875,1.890625,-3.59375
1664986592879,0.07714844,-0.75079346,0.3012085,-4.359375,5.515625,-0.765625
1664986592894,-0.04321289,-0.74468994,0.34368896,-9.921875,9.15625,-4.65625
1664986592908,-0.06665039,-0.79888916,0.39593506,-7.71875,15.21875,-5.578125
1664986592940,0.0126953125,-0.7752075,0.32269287,1.203125,9.796875,-6.078125
1664986593017,0.024169922,-0.8328247,0.3690796,-0.640625,9.6875,-4.3125
1664986593062,0.17919922,-0.2949829,-0.8933716,8.046875,16.09375,-1.234375
1664986593068,0.01953125,-0.7962036,0.42059326,-0.796875,5.3125,-2.8125
1664986593067,0.037353516,-0.25445557,-0.93218994,-0.125,10.625,-6.1875
1664986593082,0.083740234,-0.33917236,-0.923645,-1.171875,8.765625,-6.0625
1664986593087,-0.022460938,-0.27130127,-1.0147095,3.390625,7.0,-1.609375
1664986593091,-0.02709961,-0.96759033,0.38787842,-1.4375,5.640625,-0.625
1664986593106,0.040527344,-1.2905884,0.32366943,-13.546875,1.328125,0.703125
1664986593134,0.22680664,-0.36676025,-0.90216064,7.0,8.296875,0.75
1664986593174,0.122558594,-1.1018677,0.109558105,-3.75,0.21875,4.125
1664986593182,0.029052734,-0.2546997,-0.8467407,4.046875,13.421875,-6.1875
1664986593181,0.035888672,-0.27349854,-0.8831177,5.40625,6.890625,-6.515625
1664986593194,0.01171875,-0.30792236,-0.9697876,8.265625,8.0,-2.90625
1664986593198,-0.024658203,-1.1721802,0.39276123,-4.453125,8.75,2.765625
1664986593224,-0.033935547,-1.3735962,0.3451538,-0.046875,-3.515625,1.15625
1664986593257,-0.045410156,-0.1951294,-0.87506104,4.09375,-1.765625,3.171875
1664986593264,0.13378906,-1.0828247,0.42840576,-1.984375,0.3125,4.890625
1664986593301,0.07397461,-1.0772095,0.23162842,5.109375,-7.640625,12.03125
1664986593347,-0.032226562,-0.89849854,0.29486084,6.0625,-6.28125,8.15625
1664986593377,-0.01977539,-0.25006104,-0.9639282,1.8125,-2.078125,3.609375
1664986593422,-0.017578125,-0.28424072,-1.0332642,6.015625,-3.125,6.328125
1664986593414,-0.0546875,-0.8374634,0.31195068,6.65625,-6.984375,4.5625
1664986593421,-0.047851562,-0.22442627,-0.9517212,14.75,-2.78125,6.03125
1664986593432,-0.015625,-0.7974243,0.26361084,14.84375,-6.921875,4.5
1664986593465,-4.8828125E-4,-0.7815552,0.24261475,4.34375,-8.65625,4.359375
1664986593496,-0.012939453,-0.21881104,-1.0466919,29.875,7.5625,4.546875
1664986593503,-0.06591797,-0.097229004,-0.93292236,20.796875,2.15625,4.796875
1664986593509,2.4414062E-4,-0.124572754,-0.98565674,17.796875,-2.140625,3.765625
1664986593515,0.0041503906,-0.089416504,-0.95880127,20.890625,3.0625,3.4375
1664986593546,-0.03125,-0.020080566,-0.88653564,13.46875,3.1875,3.203125
1664986593534,-0.022460938,-0.7920532,0.29803467,-0.6875,-10.15625,4.125
1664986593548,-0.14501953,0.0770874,-0.7473755,2.078125,2.21875,0.046875
1664986593610,-0.072265625,-0.6668091,0.30096436,0.5625,-6.109375,2.25
1664986593616,-0.080322266,-0.8208618,0.31951904,-0.9375,-0.640625,7.28125
1664986593621,-0.053955078,-0.6465454,0.2904663,-4.453125,1.734375,0.796875
1664986593694,-0.012207031,-0.8887329,0.4257202,-0.265625,0.34375,5.671875
1664986593698,-0.09277344,-0.013977051,-0.94781494,-8.078125,2.390625,-4.8125
1664986593759,-0.039794922,-0.86187744,0.41400146,-2.28125,3.484375,1.046875
1664986593767,0.14672852,-1.2119751,0.35882568,-0.171875,-5.0,-0.9375
1664986593785,0.0034179688,-0.093566895,-1.100647,-4.390625,2.140625,-3.671875
1664986593812,0.28710938,-1.326477,0.26849365,-3.4375,-10.015625,0.28125
1664986593803,-0.013916016,-0.09234619,-1.0654907,2.453125,3.328125,-1.234375
1664986593813,-0.08154297,-0.04522705,-0.87945557,0.109375,-0.984375,-0.4375
1664986593832,0.13793945,-1.1445923,0.43792725,1.859375,-6.78125,-4.78125
1664986593885,0.11254883,-1.4094849,0.34295654,7.34375,-9.796875,-0.46875
1664986593899,0.0036621094,-0.07965088,-0.97247314,1.140625,2.359375,-0.109375
1664986593912,-0.008056641,-0.065979004,-0.9968872,2.546875,3.125,0.859375
1664986593916,-0.045654297,-0.059631348,-0.9993286,0.65625,-0.140625,0.265625
1664986593919,-0.05102539,-0.034973145,-0.9570923,1.625,-0.421875,3.453125
1664986593924,-0.050048828,-0.057922363,-0.99835205,2.328125,2.1875,3.078125
1664986593928,0.13598633,-1.2307739,0.47650146,3.515625,-3.734375,-3.234375
1664986593929,-0.053710938,-0.04864502,-1.0010376,0.296875,-2.421875,3.21875
1664986593952,-0.0107421875,-1.0127563,0.29022217,1.78125,4.0625,-7.125
1664986593977,0.029296875,-0.9085083,0.2694702,9.40625,6.359375,-8.875
1664986594021,-0.041503906,-0.042297363,-0.96417236,0.453125,-1.328125,3.28125
1664986594043,-0.030029297,-0.0635376,-1.0083618,1.0,0.984375,1.3125
1664986594047,-0.037597656,-0.062072754,-0.95269775,0.828125,-1.828125,2.34375
1664986594050,0.04345703,-0.80010986,0.3439331,2.65625,6.21875,-3.859375
1664986594057,0.049804688,-0.80670166,0.32781982,9.1875,8.203125,-2.390625
1664986594098,0.06665039,-0.77178955,0.2909546,4.140625,8.96875,-1.515625
1664986594126,0.041503906,-0.7698364,0.27069092,4.890625,4.25,-1.203125
1664986594173,0.0021972656,-0.7432251,0.31365967,5.75,1.734375,-3.84375
1664986594216,-0.07055664,-0.7036743,0.38739014,4.875,4.578125,-6.78125
1664986594244,-0.017333984,-0.753479,0.37542725,3.515625,7.375,-7.078125
1664986594292,0.011474609,-0.8057251,0.31170654,1.125,5.328125,-2.859375
1664986594336,-0.005126953,-0.84698486,0.35272217,-0.0625,6.78125,-1.828125
1664986594366,-0.055664062,-0.94781494,0.38079834,-3.5,3.1875,-3.609375
1664986594442,0.041503906,-1.4016724,0.37420654,-9.640625,7.25,2.4375
1664986594455,0.36889648,-1.2161255,-0.039123535,-3.125,-15.109375,14.84375
1664986594487,-0.029052734,-0.06842041,-0.9849243,1.484375,-1.65625,1.171875
1664986594513,-0.021484375,-0.05718994,-0.9871216,0.453125,-1.046875,0.046875
1664986594519,-0.028808594,-0.047668457,-0.9690552,0.125,0.453125,0.140625
1664986594522,-0.035888672,-0.061340332,-0.98931885,0.421875,-0.6875,0.625
1664986594529,-0.024658203,-0.047668457,-0.9727173,0.4375,-0.59375,0.53125
1664986594531,-0.01953125,-0.061340332,-0.99420166,0.453125,-0.015625,0.5625
1664986594534,-0.037597656,-0.04547119,-0.9631958,0.53125,-0.34375,1.15625
1664986594536,-0.01586914,-1.1206665,0.40008545,-3.546875,-0.875,7.421875
1664986594559,-0.09741211,-1.3213501,0.49627686,-0.203125,3.8125,2.953125
1664986594575,0.059326172,-1.2522583,0.21453857,1.59375,1.21875,2.234375
1664986594604,0.08862305,-1.0496216,0.26849365,7.09375,3.53125,1.734375
1664986594652,-0.020507812,-0.070373535,-0.97784424,0.796875,0.0,0.46875
1664986594658,-0.033691406,-0.061828613,-0.9866333,0.53125,0.234375,0.0625
1664986594662,-0.026855469,-0.061584473,-0.9729614,0.546875,0.0,-0.03125
1664986594664,-0.028564453,-0.054260254,-0.97442627,0.53125,0.15625,-0.046875
1664986594668,-0.03564453,-0.061828613,-0.99468994,0.609375,0.46875,0.203125
1664986594672,-0.033935547,-0.053527832,-0.9663696,0.5625,-0.296875,0.015625
1664986594677,0.045654297,-0.8718872,0.31072998,7.671875,2.953125,4.203125
1664986594679,-0.03100586,-0.0635376,-0.98150635,0.921875,-0.1875,0.1875
1664986594681,-0.034179688,-0.061584473,-0.98028564,0.515625,0.484375,0.21875
1664986594684,-0.016113281,-0.82696533,0.26385498,7.109375,1.859375,3.921875
1664986594727,-0.025634766,-0.74713135,0.24627686,2.984375,-0.453125,1.671875
1664986594773,-0.011230469,-0.7815552,0.2802124,3.34375,-0.703125,2.484375
1664986594801,-0.032958984,-0.05255127,-0.9729614,0.859375,-0.5,0.140625
1664986594837,-0.035888672,-0.7835083,0.28631592,-4.984375,-3.3125,-0.3125
1664986594845,0.01171875,-0.7251587,0.3258667,-5.828125,-4.734375,2.203125
1664986594893,-0.0703125,-0.7402954,0.3295288,-7.671875,-1.46875,1.03125
1664986594919,-0.095947266,-0.75323486,0.29266357,-6.453125,3.109375,-2.828125
1664986594965,-0.10449219,-0.8279419,0.42791748,-1.109375,2.71875,-3.671875
1664986595010,-0.103515625,-0.90753174,0.37860107,-2.875,10.890625,-7.765625
1664986595041,-0.061279297,-0.9817505,0.3522339,-0.421875,9.25,-4.75
1664986595115,0.25683594,-1.2371216,0.16326904,6.359375,5.53125,1.25
1664986595122,-0.03466797,-0.0569458,-0.99957275,0.671875,-0.359375,0.109375
1664986595140,0.2956543,-1.2649536,0.37957764,-3.625,-9.546875,-2.109375
1664986595190,0.06225586,-1.2295532,0.43475342,5.5,-10.265625,-3.125
1664986595205,0.06225586,-1.2542114,0.33416748,10.671875,-2.46875,-6.5625
1664986595278,0.13867188,-1.12677,0.4015503,9.140625,0.390625,-7.4375
1664986595282,0.17041016,-1.0422974,0.3427124,5.328125,-1.5,-0.09375
1664986595326,-0.0068359375,-0.7937622,0.30828857,9.96875,-1.5625,-2.796875
1664986595354,-0.03173828,-0.054260254,-0.97442627,0.375,-0.015625,-0.21875
1664986595362,0.051757812,-0.7822876,0.29779053,11.875,0.984375,-1.984375
1664986595401,0.09082031,-0.7317505,0.30584717,8.5625,0.515625,-2.203125
1664986595447,0.03564453,-0.7073364,0.25164795,6.234375,0.484375,-2.65625
1664986595476,-0.028564453,-0.058410645,-0.97369385,0.65625,-0.21875,0.078125
1664986595512,-0.028320312,-0.054992676,-0.98883057,0.703125,0.4375,0.140625
1664986595516,0.03149414,-0.6782837,0.3427124,4.390625,2.671875,-4.25
1664986595522,-0.030029297,-0.046203613,-0.9639282,0.71875,-0.09375,-0.03125
1664986595559,-0.013427734,-0.69610596,0.3319702,1.28125,-0.671875,-3.9375
1664986595595,0.1027832,-0.91192627,0.38909912,-0.90625,-9.578125,1.09375
1664986595599,-0.044189453,-0.86138916,0.40325928,-5.1875,-3.90625,-0.8125
1664986595642,-0.1586914,-0.9483032,0.45159912,-1.90625,-8.109375,-0.828125
1664986595669,-0.028320312,-1.0149536,0.4640503,-4.9375,-9.703125,1.71875
1664986595716,0.099609375,-1.3328247,0.21844482,-6.359375,-0.984375,2.328125
1664986595791,0.13134766,-1.0032349,0.23968506,3.25,-9.796875,3.03125
1664986595797,0.12036133,-1.2922974,0.43499756,-4.65625,-9.109375,14.203125
1664986595865,0.042236328,-1.2153931,0.077819824,2.984375,-24.265625,8.890625
1664986595878,-0.03125,-0.05596924,-0.9859009,0.8125,0.109375,0.171875
1664986595915,-0.049560547,-1.0300903,0.42132568,2.015625,-9.71875,1.875
1664986595904,-0.036376953,-0.06109619,-0.9800415,0.75,0.21875,0.328125
1664986595915,-0.021972656,-0.050842285,-0.97979736,0.75,-0.140625,0.53125
1664986595918,-0.035888672,-0.054992676,-0.9841919,0.71875,0.125,0.421875
1664986595921,0.09863281,-0.95440674,0.21307373,1.578125,-15.046875,6.34375
1664986595954,-0.0390625,-0.06085205,-0.97979736,0.59375,-0.140625,0.34375
1664986595962,-0.02734375,-0.057922363,-0.9727173,1.0,-0.140625,0.109375
1664986595965,-0.03466797,-0.057434082,-0.9829712,0.828125,0.078125,-0.296875
1664986595971,-0.020996094,-0.7593384,0.25726318,2.96875,-15.015625,5.359375
1664986596002,-0.068359375,-0.76763916,0.37127686,-4.0,-17.8125,8.859375
1664986596031,-0.08642578,-0.63726807,0.17156982,-3.65625,-8.0,3.421875
1664986596076,-0.12939453,-0.7263794,0.4232788,-2.6875,-9.90625,7.15625
1664986596111,-0.030761719,-0.062561035,-0.97906494,0.6875,-0.265625,-0.25
1664986596128,-0.15625,-0.73687744,0.30706787,-9.0625,-2.078125,4.609375
1664986596149,-0.19335938,-0.880188,0.46917725,-1.46875,-3.515625,4.5
1664986596196,-0.27319336,-1.0122681,0.67840576,-10.375,5.15625,0.15625
1664986596226,-0.38452148,-1.0230103,0.5704956,-0.9375,10.453125,-6.625
1664986596271,-0.11669922,-0.94854736,0.4718628,11.984375,16.578125,-7.703125
1664986596315,0.37963867,-1.5015259,0.061462402,27.671875,23.921875,2.046875
1664986596344,0.67285156,-1.081604,0.23236084,7.140625,-11.5,11.53125
1664986596421,-0.1628418,-1.1672974,0.3961792,-10.21875,-4.0,-4.265625
1664986596435,0.32714844,-1.3457642,0.21478271,-2.890625,20.65625,-15.75
1664986596464,0.33764648,-1.071106,0.33416748,-3.234375,3.796875,-7.4375
1664986596512,-0.02734375,-0.8831177,0.36688232,2.78125,3.984375,-7.953125
1664986596585,0.025146484,-0.7859497,0.23895264,10.953125,23.125,-7.1875
1664986596593,0.080078125,-0.6704712,0.25408936,2.078125,25.078125,-6.3125
1664986596665,0.026123047,-0.6758423,0.30877686,2.84375,24.296875,-6.765625
1664986596670,0.010498047,-0.72540283,0.32244873,3.875,22.734375,-5.65625
1664986596722,-0.05078125,-0.78131104,0.36566162,-0.828125,23.84375,-10.578125
1664986596752,-0.033203125,-0.8418579,0.41912842,4.71875,32.421875,-6.359375
1664986596782,-0.043945312,-0.9837036,0.52948,-0.421875,30.90625,-4.0625
1664986596824,-0.008056641,-1.053772,0.73895264,-9.3125,31.0,-4.265625
1664986596871,-0.14477539,-1.1592407,0.6144409,-3.1875,35.484375,-11.15625
1664986596903,0.016357422,-0.95928955,0.8278198,-7.65625,22.875,-26.578125
1664986596946,0.20458984,-1.1133423,0.2518921,9.171875,8.265625,-7.171875
1664986596989,0.47729492,-1.3296509,0.26190186,-4.28125,-32.359375,16.984375
1664986597019,-0.029541016,-0.05670166,-0.97735596,0.640625,-0.125,0.71875
1664986597042,-0.21289062,-1.0857544,-0.003479004,-5.34375,1.921875,2.328125
1664986597065,-0.029785156,-0.046447754,-0.9783325,0.8125,0.28125,0.234375
1664986597088,-0.036376953,-0.059631348,-0.98321533,0.734375,0.3125,0.34375
1664986597092,-0.02734375,-0.062072754,-0.9841919,0.640625,-0.0625,0.296875
1664986597095,-0.02709961,-0.053771973,-0.973938,0.4375,0.265625,0.390625
1664986597098,0.3083496,-1.0012817,0.020935059,-14.71875,-1.53125,7.59375
1664986597100,-0.02709961,-0.057678223,-0.9793091,0.75,-0.34375,-0.015625
1664986597104,-0.037597656,-0.054016113,-0.98272705,0.65625,-0.125,-0.234375
1664986597108,-0.030029297,-0.04815674,-0.98272705,0.515625,-0.078125,0.0
1664986597112,-0.033447266,-0.04083252,-0.9710083,0.296875,0.109375,0.03125
1664986597116,-0.021484375,-0.04547119,-0.9873657,0.484375,-0.59375,0.1875
1664986597121,-0.012939453,-0.049621582,-0.9859009,0.546875,0.171875,0.203125
1664986597125,-0.037353516,-0.051330566,-0.9849243,0.625,0.328125,0.359375
1664986597129,-0.020751953,-0.04840088,-0.97076416,0.4375,-0.1875,-0.0625
1664986597133,0.095703125,-1.0891724,0.20794678,-13.015625,-6.625,14.078125
1664986597142,-0.024902344,-0.058654785,-0.9883423,0.71875,0.25,0.421875
1664986597178,-0.033935547,-0.04937744,-0.97491455,0.8125,0.0,0.578125
1664986597182,0.15307617,-0.94488525,0.12664795,-6.765625,-1.296875,12.375
1664986597186,0.11230469,-0.9089966,0.449646,-5.453125,-13.296875,11.375
1664986597216,-0.03515625,-0.054748535,-1.0003052,0.625,-0.046875,0.03125
1664986597255,-0.041503906,-0.055480957,-0.9793091,0.796875,-0.078125,0.078125
1664986597259,0.18774414,-1.0005493,0.09320068,-9.625,-20.5,19.703125
1664986597267,-0.036132812,-0.7866821,0.3065796,2.390625,-20.203125,6.3125
1664986597336,0.13989258,-0.831604,0.19866943,-0.3125,-14.9375,4.078125
1664986597339,-0.03955078,-0.06842041,-0.97857666,0.59375,0.125,0.109375
1664986597377,-0.026611328,-0.050598145,-0.9776001,0.4375,-0.078125,-0.359375
1664986597383,-0.020019531,-0.04815674,-0.97540283,0.4375,-0.59375,-0.390625
1664986597387,0.18017578,-0.8430786,0.35516357,-3.359375,-24.046875,2.296875
1664986597409,-0.059570312,-0.76275635,0.402771,2.984375,-22.546875,3.6875
1664986597424,0.011962891,-0.72247314,0.19476318,8.765625,-13.328125,-2.96875
1664986597455,0.06298828,-0.80474854,0.51776123,-0.59375,-22.0625,-2.078125
1664986597506,0.059814453,-0.767395,0.23773193,4.875,-10.171875,3.609375
1664986597545,-0.122558594,-0.81817627,0.51727295,3.34375,-15.0,5.578125
1664986597575,0.0014648438,-0.75445557,0.2999878,5.53125,-6.984375,5.0625
1664986597622,-0.022216797,-0.051330566,-0.99176025,0.40625,0.0625,0.015625
1664986597628,-0.13964844,-0.8687134,0.55804443,3.109375,-10.265625,2.40625
1664986597649,-0.1899414,-0.84503174,0.48553467,3.03125,-0.296875,1.46875
1664986597697,-0.036376953,-0.04815674,-0.97491455,0.65625,0.046875,0.5625
1664986597718,-0.09838867,-0.9314575,0.44940186,4.484375,0.609375,-4.21875
1664986597742,0.16210938,-1.3972778,0.27996826,2.015625,10.625,-6.953125
1664986597772,0.46655273,-1.3091431,0.3788452,3.234375,0.734375,-1.890625
1664986597817,-0.028808594,-0.054016113,-0.9859009,0.59375,-0.0625,0.546875
1664986597853,0.14038086,-0.97320557,0.34661865,6.59375,-5.515625,-3.125
1664986597862,0.29467773,-1.2398071,0.39593506,15.921875,1.578125,7.125
1664986597893,0.15161133,-1.0444946,0.36151123,-10.59375,-20.59375,0.453125
1664986597935,-0.12988281,-0.94537354,0.3649292,8.484375,-8.375,-8.078125
1664986598016,0.033691406,-0.81085205,0.3468628,12.359375,0.265625,-12.171875
1664986598020,-0.024658203,-0.77838135,0.36834717,4.75,3.78125,-8.5625
1664986598084,0.05493164,-0.76763916,0.31976318,5.484375,2.890625,-3.875
1664986598090,0.076660156,-0.75494385,0.37249756,7.546875,11.265625,-2.703125
1664986598144,-0.05078125,-0.79156494,0.21063232,-4.609375,5.71875,-2.640625
1664986598174,-0.044677734,-0.6655884,0.43377686,1.921875,8.296875,-6.34375
1664986598204,-0.049560547,-0.7227173,0.4413452,-0.03125,7.609375,-3.375
1664986598252,-0.041015625,-0.89190674,0.3920288,-6.890625,4.0625,-4.0
1664986598296,-0.013427734,-0.7842407,0.39227295,1.25,15.453125,-4.296875
1664986598326,0.013183594,-0.93048096,0.5397339,-3.265625,12.0,-4.65625
1664986598372,0.09448242,-1.1401978,0.5006714,-4.78125,11.5625,3.71875
1664986598415,0.13085938,-1.4915161,0.45526123,-9.578125,-2.28125,13.625
1664986598444,-0.039794922,-0.05621338,-0.9812622,0.609375,0.34375,0.265625
1664986598486,-0.03540039,-0.06109619,-0.9834595,0.515625,-0.28125,0.15625
1664986598490,-0.06225586,-0.8584595,0.15765381,1.390625,9.890625,1.421875
1664986598491,0.15600586,-1.0491333,0.3624878,1.609375,15.53125,0.90625
1664986598564,0.16064453,-1.2522583,0.3685913,-5.359375,7.328125,9.09375
1664986598595,0.015136719,-1.0823364,0.30145264,5.921875,1.859375,1.453125
1664986598608,0.10571289,-0.9524536,0.46185303,10.140625,6.8125,1.125
1664986598639,0.064453125,-0.9378052,0.37078857,5.890625,-1.71875,4.484375
1664986598686,-0.04345703,-0.76348877,0.29486084,6.0,6.359375,-2.546875
1664986598760,-0.04663086,-0.77056885,0.4413452,5.171875,-0.125,-2.296875
1664986598765,0.018310547,-0.8101196,0.26678467,2.28125,-1.296875,-1.703125
1664986598836,0.07055664,-0.770813,0.309021,-1.28125,-4.515625,-0.71875
1664986598850,-0.03491211,-0.7114868,0.4003296,-3.046875,-9.609375,-1.78125
1664986598880,-0.11035156,-0.60357666,0.3583374,3.28125,-6.6875,-5.734375
1664986598956,-0.14868164,-0.86846924,0.34002686,3.625,3.296875,-5.5
1664986598971,-0.02734375,-0.90045166,0.39593506,-2.765625,2.46875,-6.953125
1664986599001,-0.048339844,-0.97857666,0.4472046,-7.34375,-3.40625,0.265625
1664986599044,0.0847168,-1.1760864,0.30389404,3.875,9.53125,-3.53125
1664986599091,0.37036133,-1.2356567,0.25335693,1.578125,-4.078125,6.484375
1664986599124,0.33935547,-1.0337524,0.37860107,6.609375,-24.40625,17.734375
1664986599164,-0.056396484,-1.260315,0.58709717,6.546875,-25.75,15.328125
1664986599194,-0.034179688,-1.1152954,0.5309448,12.359375,-6.5,-7.28125
1664986599239,0.14453125,-1.1360474,0.41326904,12.125,-6.015625,-2.203125
1664986599287,0.13183594,-0.88287354,0.3842163,9.078125,-7.296875,-8.1875
1664986599314,-0.05517578,-0.7280884,0.3624878,10.609375,-0.046875,-3.8125
1664986599362,0.046142578,-0.7620239,0.30047607,7.15625,6.296875,-1.625
1664986599435,0.05102539,-0.6902466,0.309021,2.75,11.515625,-0.484375
1664986599441,0.08081055,-0.6279907,0.38690186,-1.859375,7.65625,-0.234375
1664986599513,-0.10888672,-0.65802,0.4064331,-12.640625,1.59375,-9.90625
1664986599584,0.045654297,-0.7793579,0.44940186,-3.109375,12.171875,-9.0
1664986599588,0.03491211,-0.8098755,0.45257568,-3.65625,3.0625,-6.6875
1664986599604,0.10180664,-1.0449829,0.49945068,-10.875,-2.203125,6.15625
1664986599630,0.2697754,-1.4241333,0.30999756,-8.421875,0.21875,10.234375
1664986599675,0.018066406,-1.0327759,0.21844482,-0.703125,-13.625,9.96875
1664986599721,-0.028808594,-1.4163208,0.34051514,4.15625,6.359375,4.203125
1664986599754,0.11645508,-1.1900024,0.41351318,0.65625,3.78125,3.359375
1664986599794,0.12084961,-1.0637817,0.39569092,2.765625,-6.484375,4.90625
1664986599839,0.067871094,-0.8933716,0.26776123,7.59375,-2.5625,2.703125
1664986599870,0.01171875,-0.79229736,0.307312,5.984375,-4.375,3.75
1664986599916,-0.036865234,-0.75250244,0.2609253,8.03125,-3.515625,1.40625
1664986599960,-0.025878906,-0.71954346,0.28826904,4.75,-3.140625,1.046875
1664986599991,-0.021240234,-0.80352783,0.2999878,-0.078125,-5.984375,1.21875
1664986600039,-0.04638672,-0.6057739,0.35321045,-0.921875,-6.171875,-1.796875
1664986600083,-0.08251953,-0.8545532,0.40350342,-0.890625,7.484375,3.25
1664986600110,-0.040527344,-0.058166504,-0.98101807,0.625,0.125,-0.0625
1664986600135,-0.009277344,-0.7739868,0.29119873,-5.078125,0.328125,-0.34375
1664986600187,0.024414062,-0.9348755,0.48406982,1.578125,5.171875,4.1875
1664986600191,0.06347656,-0.9849243,0.41107178,3.25,-2.9375,2.375
1664986600261,0.20092773,-1.3508911,0.30999756,3.421875,-7.0625,-3.75
1664986600275,0.3256836,-1.0540161,0.29241943,18.96875,-11.75,0.625
1664986600305,0.16381836,-1.1931763,0.36517334,12.09375,-24.71875,7.953125
1664986600349,0.1381836,-1.2546997,0.4413452,13.515625,-13.40625,9.90625
1664986600394,0.043701172,-1.0606079,0.37176514,0.96875,-6.515625,-5.21875
1664986600423,-0.013427734,-1.0371704,0.39300537,7.59375,-3.078125,-5.671875
1664986600467,-0.010986328,-0.8286743,0.33807373,9.828125,3.5,-12.34375
1664986600516,0.064453125,-0.79156494,0.32269287,10.25,8.328125,-9.0625
1664986600546,0.09887695,-0.7510376,0.24725342,6.1875,9.046875,-3.046875
1664986600590,0.04638672,-0.7005005,0.28778076,-0.8125,10.25,-5.1875
1664986600621,-0.1340332,-0.6331177,0.41644287,-2.671875,7.703125,-13.765625
1664986600669,-0.026367188,-0.050598145,-0.9805298,0.5,-0.046875,-0.203125
1664986600687,-0.021972656,-0.05328369,-0.986145,0.46875,-0.140625,-0.34375
1664986600692,-0.024169922,-0.04937744,-0.9837036,0.453125,0.03125,-0.0625
1664986600696,0.0061035156,-0.8657837,0.34368896,4.84375,10.8125,-10.3125
1664986600711,0.021972656,-0.8428345,0.34906006,-3.984375,6.890625,-9.0625
1664986600738,-0.06225586,-0.84503174,0.41326904,-3.84375,7.84375,-4.828125
1664986600783,-4.8828125E-4,-0.9439087,0.4364624,-8.3125,12.96875,-5.890625
1664986600836,0.096191406,-1.315979,0.23773193,-13.875,20.921875,1.375
1664986600864,0.4020996,-1.0112915,-0.024719238,-8.09375,-4.265625,8.671875
1664986600903,0.045898438,-1.3735962,0.3847046,-1.3125,-1.828125,10.703125
1664986600950,-0.060058594,-1.2451782,0.34295654,0.5,-6.984375,6.671875
1664986600982,0.0056152344,-1.1570435,0.42669678,0.578125,-2.296875,0.828125
1664986601055,-0.06591797,-1.0454712,0.24847412,7.3125,1.21875,1.1875
1664986601070,0.09350586,-0.8135376,0.262146,12.6875,7.234375,1.6875
1664986601099,0.041015625,-0.8225708,0.28460693,5.6875,-0.359375,7.71875
1664986601144,-0.04345703,-0.73809814,0.2694702,5.203125,1.5625,3.8125
1664986601174,-0.009033203,-0.7288208,0.30340576,5.234375,-0.109375,2.21875
1664986601222,0.013183594,-0.82696533,0.30584717,-7.171875,-4.65625,2.640625
1664986601272,-0.04321289,-0.57696533,0.31365967,-7.375,-7.34375,-3.078125
1664986601294,-0.103759766,-0.7739868,0.4196167,-11.484375,-2.9375,-2.140625
1664986601341,-0.13916016,-0.6902466,0.22894287,3.96875,2.734375,-12.671875
1664986601390,-0.17529297,-1.0093384,0.5326538,-4.203125,11.625,-6.953125
1664986601414,0.1274414,-1.0591431,0.3180542,-0.171875,5.859375,-4.3125
1664986601459,0.30981445,-1.281311,0.27142334,2.59375,-6.671875,-0.984375
1664986601537,0.2175293,-1.2183228,0.37493896,4.15625,-15.3125,-0.859375
1664986601543,-0.0029296875,-1.3872681,0.41326904,3.015625,-10.0625,2.828125
1664986601609,0.09838867,-1.1536255,0.3805542,2.109375,-5.359375,-2.90625
1664986601616,-0.03173828,-0.047668457,-0.97662354,0.6875,0.078125,0.171875
1664986601634,0.16577148,-1.1135864,0.3986206,0.375,-7.53125,-3.09375
1664986601685,0.107177734,-1.0071411,0.34295654,7.953125,-7.40625,-0.34375
1664986601700,-0.07299805,-0.77178955,0.3534546,12.703125,-1.34375,-3.1875
1664986601777,0.019042969,-0.7944946,0.3012085,18.75,-0.28125,1.34375
1664986601786,0.03100586,-0.75738525,0.27801514,8.71875,-0.046875,0.4375
1664986601819,0.022460938,-0.77349854,0.28460693,6.53125,7.453125,-1.875
1664986601852,0.0107421875,-0.6860962,0.44232178,4.96875,17.984375,-6.046875
1664986601897,-0.103759766,-0.6902466,0.3805542,2.53125,-1.734375,-15.125
1664986601943,0.11987305,-0.96759033,0.3793335,-4.890625,19.03125,-5.265625
1664986601971,-0.03930664,-0.84820557,0.3768921,-6.828125,6.140625,-8.21875
1664986602015,-0.095214844,-0.95635986,0.31610107,-4.75,1.609375,-0.703125
1664986602092,0.049804688,-1.2654419,0.28485107,-11.515625,1.859375,5.390625
1664986602096,0.30908203,-1.2119751,0.005554199,-5.09375,-8.125,15.390625
1664986602139,-0.083984375,-0.91363525,0.50653076,-11.015625,-12.796875,12.09375
1664986602166,-0.13378906,-1.6560669,0.30828857,-1.484375,0.765625,9.03125
1664986602211,-0.030761719,-1.1135864,0.38031006,4.609375,15.375,-8.28125
1664986602256,-0.028564453,-0.047424316,-0.97979736,0.640625,0.03125,0.109375
1664986602278,-0.03125,-0.0569458,-0.986145,0.765625,0.03125,0.328125
1664986602284,0.0949707,-0.9805298,0.3756714,4.390625,5.40625,0.703125
1664986602287,-0.036376953,-0.0569458,-0.97979736,0.5625,0.109375,0.40625
1664986602290,0.005859375,-0.8792114,0.3312378,11.703125,4.546875,7.71875
1664986602330,-0.0087890625,-0.75079346,0.20892334,7.125,1.46875,3.125
1664986602377,-0.041992188,-0.7720337,0.2518921,9.765625,-0.703125,1.890625
1664986602407,-0.00390625,-0.7649536,0.2230835,4.078125,-1.828125,-0.484375
1664986602479,0.020263672,-0.73272705,0.24725342,3.390625,-3.25,1.71875
1664986602495,-0.09741211,-0.74346924,0.28729248,-12.921875,-5.296875,1.21875
1664986602525,-0.0625,-0.6939087,0.2518921,-6.21875,-2.96875,-0.28125
1664986602585,-0.09423828,-0.81817627,0.385437,-7.609375,5.46875,-0.3125
1664986602599,-0.10571289,-0.8887329,0.338562,-8.421875,8.4375,-6.828125
1664986602646,-0.018066406,-0.95391846,0.43182373,-4.140625,10.640625,-5.96875
1664986602688,-0.03466797,-0.05279541,-0.98760986,0.6875,0.03125,0.015625
1664986602696,-0.030517578,-0.054260254,-0.9817505,0.4375,-0.21875,0.046875
1664986602699,-0.03149414,-0.049865723,-0.97979736,0.59375,-0.109375,0.328125
1664986602717,0.21508789,-1.3589478,0.26678467,0.4375,0.4375,-7.703125
1664986602719,-0.032470703,-0.053527832,-0.9883423,0.640625,0.109375,0.078125
1664986602720,0.2487793,-1.25177,0.3571167,5.640625,-13.0625,-5.125
1664986602795,0.072021484,-1.1204224,0.6154175,9.109375,-10.15625,-4.921875
1664986602809,-0.092285156,-1.3457642,0.28167725,13.265625,-4.890625,-1.859375
1664986602838,-0.04296875,-0.059143066,-0.9819946,0.65625,-0.109375,0.09375
1664986602847,0.099853516,-1.1345825,0.3991089,2.359375,-8.078125,-12.78125
1664986602884,0.0107421875,-0.9968872,0.37176514,6.515625,0.0,-10.390625
1664986602937,0.011230469,-0.82476807,0.23846436,6.546875,-1.4375,-3.75
1664986602962,-0.02319336,-0.7473755,0.2843628,9.859375,2.796875,-2.65625
1664986603004,0.043701172,-0.755188,0.35028076,4.609375,5.15625,3.625
1664986603048,0.022460938,-0.7595825,0.29510498,4.71875,-0.34375,4.28125
1664986603080,-0.052001953,-0.68218994,0.36102295,6.765625,3.140625,-2.078125
1664986603124,-0.07421875,-0.73931885,0.40057373,2.484375,8.21875,-4.640625
1664986603154,-0.033935547,-0.04498291,-0.97979736,0.46875,-0.109375,0.046875
1664986603166,-0.028320312,-0.04840088,-0.98272705,0.546875,-0.171875,0.265625
1664986603170,-0.034179688,-0.054748535,-0.9807739,0.640625,-0.015625,0.3125
1664986603173,0.064941406,-0.8008423,0.2987671,-11.59375,17.203125,-4.609375
1664986603232,-0.049072266,-0.90093994,0.35736084,4.21875,8.515625,-0.75
1664986603244,-0.06689453,-0.75201416,0.416687,0.984375,0.125,-1.25
1664986603275,-0.06640625,-0.9924927,0.37420654,-2.859375,9.65625,1.390625
1664986603337,0.15722656,-1.2979126,0.3192749,-11.375,-4.671875,4.796875
1664986603367,0.27661133,-1.1160278,0.08074951,6.296875,-15.296875,16.15625
1664986603396,-0.1430664,-1.3926392,0.463562,-12.828125,-5.71875,15.421875
1664986603439,-0.13134766,-1.4299927,0.2645874,7.25,-0.25,-1.046875
1664986603484,0.100097656,-1.0112915,0.45794678,1.671875,5.40625,0.296875
1664986603514,0.024414062,-1.0488892,0.27215576,5.609375,-1.9375,5.203125
1664986603559,0.04296875,-0.7866821,0.2675171,8.09375,3.96875,2.046875
1664986603590,0.020263672,-0.786438,0.26141357,5.34375,-0.921875,4.890625
1664986603635,-0.014160156,-0.76031494,0.2255249,8.859375,-6.4375,3.453125
1664986603683,-0.013916016,-0.75323486,0.21697998,5.734375,-4.796875,1.484375
1664986603715,0.013916016,-0.7710571,0.2736206,-1.8125,-13.859375,4.25
1664986603754,-0.07714844,-0.54473877,0.2662964,-6.53125,-16.5625,-0.765625
1664986603832,-0.10498047,-0.7769165,0.37786865,-4.59375,-0.546875,3.1875
1664986603837,-0.19384766,-0.76397705,0.26654053,-6.78125,2.125,-8.515625
1664986603905,-0.076416016,-0.9260864,0.42669678,-0.34375,10.46875,-7.25
1664986603919,0.038330078,-1.2207642,0.27337646,-6.734375,-2.609375,-5.6875
1664986603950,0.17041016,-1.416565,0.3390503,-1.734375,0.984375,-3.984375
1664986603994,0.33251953,-1.1882935,0.4100952,-2.671875,-14.5625,-5.71875
1664986604075,-0.15405273,-1.4038696,0.49725342,1.265625,1.46875,1.0
1664986604080,0.034423828,-1.1589966,0.45233154,10.625,-0.125,-10.96875
1664986604146,0.07324219,-1.0696411,0.36419678,2.09375,5.609375,-5.09375
1664986604155,0.07739258,-0.96881104,0.29730225,8.609375,-3.53125,-0.71875
1664986604190,-0.0061035156,-0.7295532,0.3373413,9.390625,-2.75,-1.84375
1664986604236,0.021240234,-0.7661743,0.3673706,9.0625,-0.578125,2.5625
1664986604270,0.032226562,-0.7229614,0.30316162,5.03125,-2.3125,1.875
1664986604308,0.0078125,-0.7883911,0.29632568,3.546875,-0.625,3.28125
1664986604354,-0.013427734,-0.694397,0.32562256,4.578125,-1.21875,-1.546875
1664986604386,-0.07910156,-0.69122314,0.3944702,-6.5,5.25,-5.5625
1664986604428,-0.0078125,-0.81451416,0.37469482,0.34375,7.625,-2.765625
1664986604473,0.05053711,-0.78204346,0.3546753,-1.875,-1.828125,0.34375
1664986604503,-0.010498047,-0.86505127,0.4640503,-8.390625,-0.046875,0.359375
1664986604581,-0.08520508,-1.0130005,0.4755249,-12.265625,-5.71875,-2.234375
1664986604584,0.1586914,-1.4338989,0.22503662,1.703125,-4.671875,6.65625
1664986604657,0.1315918,-1.0618286,0.21942139,-4.34375,-8.03125,3.078125
1664986604671,4.8828125E-4,-1.4187622,0.47406006,-9.03125,-2.1875,4.65625
1664986604704,-0.021484375,-1.236145,0.44891357,0.734375,2.140625,-1.0625
1664986604744,0.11303711,-1.0569458,0.31414795,4.296875,0.53125,-0.6875
1664986604793,-0.0107421875,-0.9468384,0.24090576,9.015625,4.21875,4.453125
1664986604824,0.041748047,-0.8123169,0.30584717,13.171875,-2.796875,7.59375
1664986604864,-0.07446289,-0.7954712,0.27630615,5.296875,-5.875,4.34375
1664986604909,4.8828125E-4,-0.7359009,0.26361084,9.984375,-2.59375,4.65625
1664986604943,-0.047607422,-0.83673096,0.27825928,4.3125,-7.96875,3.28125
1664986604984,-0.008300781,-0.71343994,0.23968506,2.640625,-5.171875,0.890625
1664986605031,-0.09692383,-0.79644775,0.432312,-10.921875,-3.5,1.796875
1664986605061,-0.12036133,-0.73443604,0.25457764,3.21875,1.421875,-0.828125
1664986605105,-0.087890625,-0.78790283,0.37957764,1.5625,9.6875,-0.734375
1664986605135,-0.036865234,-0.85821533,0.39154053,-5.8125,4.359375,-2.890625
1664986605182,-0.048583984,-0.8882446,0.4303589,0.90625,10.609375,-2.0625
1664986605224,0.18945312,-1.0872192,0.23773193,6.28125,-0.671875,2.328125
1664986605256,0.24633789,-1.128479,0.20501709,9.328125,-2.390625,5.671875
1664986605302,0.31713867,-1.5598755,0.4257202,-7.125,-7.828125,-0.796875
1664986605375,-0.018310547,-1.2554321,0.41326904,0.640625,-0.09375,-4.46875
1664986605380,0.08178711,-1.2385864,0.35565186,5.65625,3.609375,-6.171875
1664986605454,0.12548828,-1.0916138,0.38739014,7.203125,-0.625,-3.359375
1664986605465,-0.029296875,-0.7307739,0.28118896,5.140625,1.109375,-7.328125
1664986605496,0.025634766,-0.7346802,0.32025146,11.3125,4.53125,-0.484375
1664986605541,0.03466797,-0.7276001,0.2843628,6.75,3.109375,-1.875
1664986605584,0.018798828,-0.71710205,0.28656006,4.8125,3.6875,-0.328125
1664986605614,0.0053710938,-0.7515259,0.260437,2.96875,3.359375,-3.453125
1664986605661,-0.06542969,-0.66900635,0.44476318,-2.546875,5.796875,-10.484375
1664986605693,-0.061035156,-0.7498169,0.355896,-5.40625,11.8125,-8.53125
1664986605737,0.109375,-0.927063,0.4179077,-1.40625,4.796875,-2.15625
1664986605783,-0.008544922,-0.8440552,0.4389038,-5.453125,3.75,-0.875
1664986605813,0.020019531,-1.0830688,0.4833374,-6.296875,2.609375,3.171875
1664986605856,0.31835938,-1.3919067,0.23260498,-11.171875,-7.15625,8.21875
1664986605907,0.083496094,-0.9290161,0.18035889,3.171875,-8.515625,8.9375
1664986605933,-0.10253906,-1.5005493,0.39056396,-2.5625,3.6875,9.71875
1664986605976,-0.029785156,-1.1599731,0.2994995,5.46875,8.96875,0.328125
1664986606055,0.118652344,-1.1358032,0.35125732,1.5625,0.640625,5.1875
1664986606061,0.021972656,-0.9873657,0.24407959,6.171875,4.28125,4.765625
1664986606123,0.03515625,-0.7876587,0.2555542,9.171875,3.359375,3.046875
1664986606129,-0.04321289,-0.78448486,0.26312256,7.6875,0.234375,1.75
1664986606185,-0.011230469,-0.7727661,0.20013428,7.25,4.53125,-1.703125
1664986606215,0.027832031,-0.77789307,0.25994873,3.703125,2.71875,-1.625
1664986606248,-0.020263672,-0.77423096,0.26116943,-2.09375,0.28125,-0.953125
1664986606293,-0.057617188,-0.66900635,0.30511475,-4.890625,-3.625,-4.359375
1664986606334,-0.05517578,-0.7749634,0.27825928,-12.984375,-7.203125,1.3125
1664986606364,-0.111083984,-0.8550415,0.33953857,-1.84375,3.59375,-4.046875
1664986606411,0.0024414062,-0.9763794,0.38739014,-6.453125,3.5,-2.625
1664986606455,-0.14575195,-1.0576782,0.48480225,-10.640625,3.875,-8.265625
1664986606484,0.1159668,-1.2268677,0.36297607,-0.96875,3.09375,-9.046875
1664986606530,0.18798828,-1.2073364,0.2682495,1.25,-5.421875,-6.875
1664986606575,0.21972656,-1.0444946,0.31536865,0.265625,-12.609375,-2.34375
1664986606607,-0.0087890625,-1.2400513,0.4491577,4.40625,-1.453125,-1.671875
1664986606682,-0.011230469,-1.076477,0.46136475,2.953125,-2.515625,-11.078125
1664986606688,0.08886719,-1.1589966,0.38446045,5.703125,-0.359375,-3.765625
1664986606754,0.03491211,-0.8970337,0.35150146,5.984375,-0.890625,-3.890625
1664986606768,0.008056641,-0.7654419,0.35687256,8.109375,3.34375,-1.5
1664986606800,0.051757812,-0.79400635,0.31585693,5.421875,1.65625,0.03125
1664986606876,-0.020263672,-0.7324829,0.2838745,6.203125,4.40625,-2.640625
1664986606891,-0.022949219,-0.6499634,0.3986206,-0.96875,10.5,-8.75
1664986606926,-0.11669922,-0.65753174,0.4159546,1.15625,2.078125,-14.4375
1664986606965,-0.0036621094,-0.75494385,0.38641357,9.328125,8.34375,-5.234375
1664986607010,0.017578125,-0.8413696,0.3571167,1.65625,6.75,-2.296875
1664986607039,-0.046142578,-0.9751587,0.41864014,-4.421875,2.75,2.609375
1664986607085,0.111083984,-1.5215454,0.3300171,-8.515625,-1.59375,10.578125
1664986607115,0.14575195,-1.0227661,0.10345459,-2.171875,-16.03125,14.609375
1664986607161,-0.21435547,-1.1726685,0.47381592,-13.625,4.203125,10.484375
1664986607245,0.0390625,-1.3838501,0.22991943,7.71875,5.59375,7.875
1664986607256,0.060791016,-1.0327759,0.4064331,0.1875,1.984375,0.46875
1664986607279,0.025390625,-1.0403442,0.37005615,7.53125,-2.8125,6.953125
1664986607325,-0.0087890625,-0.8477173,0.19134521,8.296875,1.71875,4.046875
1664986607355,-0.021240234,-0.8245239,0.2802124,7.78125,0.640625,3.34375
1664986607399,-0.0390625,-0.7659302,0.2514038,7.421875,0.65625,2.0
1664986607445,0.016113281,-0.8389282,0.29803467,5.6875,0.59375,3.953125
1664986607476,0.037597656,-0.7595825,0.26507568,2.734375,-4.78125,3.9375
1664986607549,-0.08984375,-0.7859497,0.39715576,-6.953125,-4.890625,3.140625
1664986607565,-0.07397461,-0.8394165,0.29803467,-4.3125,-6.171875,-0.5
1664986607597,-0.06225586,-0.8340454,0.36273193,-2.9375,6.25,-4.578125
1664986607670,-0.027832031,-0.93463135,0.34588623,-1.609375,1.96875,-2.921875
1664986607674,-0.11669922,-0.88238525,0.4784546,-5.8125,6.1875,-7.640625
1664986607715,0.018066406,-1.0484009,0.47454834,-0.28125,1.84375,-2.953125
1664986607760,0.12475586,-1.1819458,0.29315186,2.453125,-6.203125,-2.09375
1664986607799,0.22509766,-1.0630493,0.2140503,1.890625,-7.515625,0.265625
1664986607836,0.15771484,-1.2681274,0.3925171,0.109375,-4.65625,6.359375
1664986607912,0.009521484,-1.1831665,0.49188232,9.015625,-0.265625,0.53125
1664986607917,0.010009766,-1.0181274,0.37908936,5.78125,0.984375,-8.171875
1664986607955,0.13769531,-0.98638916,0.37176514,9.9375,-3.125,-1.234375
1664986608000,-0.032470703,-0.78692627,0.3192749,11.5625,2.125,-3.671875
1664986608032,0.0625,-0.78253174,0.23699951,12.421875,6.703125,0.1875
1664986608075,0.029296875,-0.70025635,0.26385498,8.921875,6.03125,-1.875
1664986608106,0.013427734,-0.7136841,0.33172607,1.25,7.65625,-4.515625
1664986608149,-0.03564453,-0.73028564,0.39569092,-1.96875,10.203125,-5.484375
1664986608223,0.056152344,-0.82940674,0.369812,-2.859375,0.6875,-3.328125
1664986608228,0.005126953,-0.88726807,0.37957764,-2.0,1.375,-0.1875
1664986608302,-0.015136719,-0.91241455,0.43865967,-3.828125,-0.53125,0.640625
1664986608314,-0.041503906,-1.0344849,0.4857788,-10.875,-4.46875,-0.65625
1664986608344,0.27294922,-1.237854,0.18035889,1.65625,3.421875,9.421875
1664986608390,0.16137695,-0.9373169,0.22406006,-6.265625,-3.515625,13.625
1664986608435,0.056640625,-1.484436,0.28216553,-0.5625,-3.46875,16.015625
1664986608463,-0.06616211,-1.234436,0.43255615,-0.015625,4.890625,1.015625
1664986608512,0.14624023,-1.1585083,0.42279053,2.65625,-5.265625,2.78125
1664986608557,0.044189453,-0.93634033,0.17181396,-3.484375,-4.0,2.03125
1664986608584,0.02368164,-0.82818604,0.2855835,0.90625,-6.890625,4.15625
1664986608629,-0.017822266,-0.79034424,0.25531006,3.578125,-6.8125,2.0
1664986608660,-0.018310547,-0.77667236,0.26190186,5.546875,-4.84375,0.109375
1664986608706,-7.324219E-4,-0.81451416,0.2501831,4.34375,-5.375,1.28125
1664986608751,0.0021972656,-0.7139282,0.34710693,-1.265625,-9.65625,0.03125
1664986608780,-0.12182617,-0.7908325,0.35028076,-7.65625,0.015625,-0.5
1664986608825,0.0014648438,-0.64434814,0.21844482,2.015625,0.53125,-1.078125
1664986608873,-0.107910156,-0.88531494,0.4508667,-3.53125,9.953125,-1.875
1664986608903,-0.072753906,-0.7593384,0.31195068,0.203125,11.25,-9.34375
1664986608975,0.25830078,-1.0957642,0.4118042,6.375,1.609375,4.984375
1664986608990,0.15454102,-1.2666626,0.31097412,1.453125,-6.25,-0.15625
1664986609022,0.26489258,-1.142395,0.34368896,6.765625,-9.828125,-4.0
1664986609096,0.15893555,-1.4641724,0.5397339,-0.15625,-0.640625,2.609375
1664986609102,0.004638672,-1.1482544,0.39813232,0.734375,-5.71875,-13.234375
1664986609144,0.041992188,-1.0266724,0.3397827,7.3125,8.40625,-10.609375
1664986609219,0.17919922,-0.986145,0.3571167,7.9375,5.265625,-0.96875
1664986609221,-0.0029296875,-0.77471924,0.30462646,6.96875,8.484375,-4.265625
1664986609261,0.076171875,-0.8045044,0.30389404,6.125,8.0625,-3.296875
1664986609306,7.324219E-4,-0.7251587,0.30999756,-0.4375,4.390625,-5.96875
1664986609336,0.057128906,-0.7305298,0.32269287,0.875,10.25,-9.421875
1664986609382,0.0,-0.7288208,0.4154663,-4.109375,6.09375,-7.71875
1664986609425,0.091796875,-0.8345337,0.30291748,-6.4375,4.15625,0.25
1664986609455,-0.08496094,-0.8447876,0.39471436,-2.40625,-0.171875,-2.71875
1664986609499,-0.011230469,-0.8064575,0.42059326,0.0,4.734375,-2.5625
1664986609547,-0.091308594,-0.8723755,0.46746826,-5.921875,3.484375,-6.0
1664986609575,-0.0021972656,-1.2249146,0.33685303,-10.171875,2.78125,-2.328125
1664986609622,0.38061523,-1.2300415,0.18328857,-12.4375,-7.359375,5.28125
1664986609649,-0.006591797,-0.9434204,0.43450928,2.625,-2.625,3.9375
1664986609695,-0.039794922,-1.4043579,0.38079834,-6.375,-3.453125,2.53125
1664986609771,-0.028320312,-1.1421509,0.48846436,-4.1875,4.953125,-3.78125
1664986609778,0.030517578,-1.060852,0.34613037,2.25,-2.59375,0.671875
1664986609846,0.024902344,-0.9024048,0.36712646,9.171875,2.578125,2.171875
1664986609864,-0.033691406,-0.8088989,0.3234253,8.25,1.234375,3.03125
1664986609894,-0.009033203,-0.8394165,0.27313232,7.234375,5.03125,2.375
1664986609938,-0.057861328,-0.7756958,0.39569092,5.4375,0.234375,1.8125
1664986609981,-0.0546875,-0.8364868,0.35516357,2.796875,1.78125,0.65625
1664986610017,-0.032714844,-0.7871704,0.33538818,-3.609375,1.078125,0.109375
1664986610056,0.026855469,-0.7107544,0.35028076,-5.0625,-2.484375,3.453125
1664986610085,-0.099365234,-0.6421509,0.3534546,-3.125,-6.578125,-0.046875
1664986610128,-0.053955078,-0.7515259,0.36102295,2.671875,0.84375,4.09375
1664986610174,-0.1809082,-0.8179321,0.42791748,-1.28125,3.484375,-4.515625
1664986610206,-0.12915039,-0.91290283,0.52801514,7.171875,12.5,-0.1875
1664986610250,0.06640625,-0.9805298,0.3139038,6.546875,5.546875,-2.65625
1664986610295,0.2993164,-1.2571411,0.20184326,8.296875,6.859375,-1.625
1664986610325,0.28833008,-1.2698364,0.35760498,4.3125,-11.171875,-2.125
1664986610400,-0.0068359375,-1.4182739,0.51361084,6.421875,-7.734375,0.90625
1664986610414,0.046875,-1.2244263,0.4249878,5.265625,-7.046875,-5.046875
1664986610445,0.07055664,-1.0100708,0.34906006,9.015625,-8.046875,-7.3125
1664986610522,0.12182617,-0.9885864,0.37249756,5.84375,-4.359375,-0.90625
1664986610535,0.0036621094,-0.7444458,0.31219482,10.625,5.0,-3.03125
1664986610564,0.057128906,-0.81695557,0.25897217,10.328125,8.8125,-1.671875
1664986610610,0.01586914,-0.7398071,0.3065796,9.078125,4.4375,-3.171875
1664986610642,0.023925781,-0.79937744,0.28948975,4.75,6.59375,-4.609375
1664986610684,0.005859375,-0.7246704,0.39422607,-0.796875,7.28125,-9.78125
1664986610729,0.044677734,-0.73931885,0.34222412,0.296875,7.140625,-4.84375
1664986610758,0.04248047,-0.80718994,0.38006592,-1.140625,1.390625,2.0
1664986610805,0.028564453,-0.8154907,0.31048584,7.546875,-0.25,4.671875
1664986610850,-0.080078125,-0.85406494,0.3788452,-7.0,-6.90625,-1.3125
1664986610879,-0.026855469,-1.1484985,0.34051514,-8.078125,-7.78125,0.875
1664986610925,0.29003906,-1.2251587,0.08441162,-4.28125,-17.5,8.765625
1664986610971,-0.014892578,-1.3701782,0.31903076,-11.390625,-7.9375,7.921875
1664986611000,-0.13500977,-1.2610474,0.3456421,-4.828125,-0.921875,-2.625
1664986611044,0.07714844,-1.2158813,0.5331421,1.984375,-10.25,3.21875
1664986611089,0.083496094,-1.0549927,0.19110107,8.5,-10.140625,6.703125
1664986611127,-0.032226562,-0.9187622,0.30706787,6.109375,-1.5,3.625
1664986611164,0.0029296875,-0.8677368,0.28778076,8.90625,-7.125,4.921875
1664986611193,-0.048339844,-0.79229736,0.29266357,9.5625,-5.71875,1.046875
1664986611272,-0.04663086,-0.74005127,0.2975464,5.390625,-5.390625,2.328125
1664986611288,-0.026855469,-0.77667236,0.21868896,8.234375,-6.03125,0.96875
1664986611316,-0.032470703,-0.75323486,0.23651123,-4.078125,1.109375,0.265625
1664986611359,-0.008544922,-0.7908325,0.30926514,-8.421875,-9.125,3.984375
1664986611405,-0.17114258,-0.66485596,0.3151245,-5.671875,-0.46875,-3.234375
1664986611435,-0.064941406,-0.8792114,0.3373413,-3.6875,1.625,-1.53125
1664986611480,-0.118652344,-0.77130127,0.34661865,-2.75,5.015625,-1.609375
1664986611526,0.12792969,-1.0303345,0.44329834,2.015625,1.515625,5.5
1664986611557,0.20996094,-1.4048462,0.2814331,9.90625,2.671875,4.5625
1664986611602,0.25683594,-1.2703247,0.28338623,-0.46875,-5.140625,-1.5
1664986611628,0.07397461,-1.5154419,0.618103,-1.4375,5.28125,0.375
1664986611676,0.063964844,-1.1221313,0.36541748,7.515625,-5.5625,-6.796875
1664986611751,0.12084961,-1.0628052,0.3768921,1.75,-4.984375,-0.53125
1664986611758,0.06542969,-0.881897,0.2999878,5.625,-2.546875,-2.84375
1664986611799,-0.025146484,-0.69244385,0.30023193,7.453125,1.296875,-4.71875
1664986611842,0.04663086,-0.7761841,0.2802124,8.203125,5.65625,-2.421875
1664986611871,0.1237793,-0.74835205,0.29412842,4.78125,3.328125,-2.25
1664986611947,0.06591797,-0.7822876,0.29486084,2.84375,2.6875,1.5
1664986611962,-0.037109375,-0.7161255,0.39471436,0.6875,2.8125,-4.984375
1664986611991,-0.04736328,-0.7720337,0.33465576,1.546875,4.34375,-7.921875
1664986612049,0.083740234,-0.88726807,0.3961792,-4.0625,-1.03125,-3.953125
1664986612079,-0.0041503906,-0.78570557,0.3209839,-1.140625,-1.859375,-2.828125
1664986612110,-0.049316406,-0.9146118,0.43597412,-11.765625,-1.125,-2.390625
1664986612156,-0.0048828125,-1.0689087,0.4586792,-20.75,-8.5625,-0.359375
1664986612185,0.35083008,-1.3865356,0.1749878,-16.640625,2.859375,8.875
1664986612230,0.037597656,-0.8831177,0.3534546,-8.5625,-12.875,7.875
1664986612277,-0.05419922,-1.4468384,0.37054443,-6.921875,-1.453125,8.609375
1664986612305,-0.0024414062,-1.1150513,0.41815186,0.1875,-2.421875,2.3125
1664986612351,-0.030517578,-1.067688,0.49163818,-1.6875,-4.453125,1.65625
1664986612394,0.041259766,-0.8945923,0.276062,11.921875,6.859375,3.0625
1664986612424,0.055419922,-0.7461548,0.29364014,14.1875,3.625,4.84375
1664986612469,-0.037841797,-0.8430786,0.31097412,7.6875,1.484375,3.28125
1664986612517,0.05029297,-0.7737427,0.24871826,8.0625,-2.46875,3.578125
1664986612543,-0.030761719,-0.77471924,0.31292725,1.28125,-3.078125,3.140625
1664986612589,-0.02709961,-0.7788696,0.32244873,0.296875,-1.796875,2.890625
1664986612623,0.016357422,-0.65167236,0.32366943,6.265625,-3.3125,3.015625
1664986612698,-0.022216797,-0.8279419,0.36346436,1.875,-6.296875,4.796875
1664986612713,-0.11352539,-0.7991333,0.32244873,5.46875,-5.203125,-2.15625
1664986612742,-0.14868164,-0.93756104,0.42938232,-0.265625,2.4375,-4.890625
1664986612800,-0.052001953,-1.02594,0.36102295,5.890625,1.140625,-9.625
1664986612828,0.31225586,-1.302063,0.17645264,4.5,0.265625,-7.96875
1664986612859,0.34375,-1.2678833,0.40472412,1.84375,-5.671875,-2.046875
1664986612904,-0.024902344,-1.3076782,0.4755249,-2.703125,0.453125,-2.125
1664986612952,0.042236328,-1.2588501,0.32806396,4.875,0.53125,-9.6875
1664986612984,0.064941406,-1.0249634,0.41351318,6.96875,4.25,-9.78125
1664986613055,0.05029297,-0.9717407,0.2904663,6.1875,5.65625,-5.578125
1664986613069,0.01928711,-0.7942505,0.26116943,9.25,6.953125,-3.765625
1664986613101,0.07128906,-0.753479,0.35638428,6.484375,9.5625,-0.640625
1664986613144,0.03564453,-0.78204346,0.30438232,3.765625,10.171875,2.921875
1664986613175,0.068603516,-0.7300415,0.27557373,3.875,6.953125,-2.0625
1664986613221,0.03857422,-0.7427368,0.34197998,-2.171875,9.015625,-5.796875
1664986613264,-0.018798828,-0.73516846,0.35565186,2.203125,6.78125,-3.390625
1664986613295,0.041503906,-0.82354736,0.4298706,-1.4375,4.09375,-4.625
1664986613372,-0.03955078,-0.847229,0.33148193,-0.484375,1.953125,-0.546875
1664986613387,-0.036376953,-0.8862915,0.3788452,-1.4375,-4.703125,-2.546875
1664986613416,0.048583984,-1.2493286,0.3751831,-10.875,-8.25,2.578125
1664986613491,0.2253418,-1.1494751,0.04071045,-10.328125,-16.75,9.390625
1664986613506,-0.045410156,-1.0635376,0.5055542,-8.890625,0.359375,3.4375
1664986613536,0.03515625,-1.4192505,0.23431396,-7.21875,-8.28125,2.09375
1664986613579,0.02709961,-1.1055298,0.480896,-2.921875,4.03125,-1.78125
1664986613610,0.071777344,-1.1489868,0.30096436,1.171875,-4.078125,5.984375
1664986613654,0.030517578,-0.92803955,0.2994995,6.078125,2.453125,3.359375
1664986613699,0.03515625,-0.7774048,0.3427124,4.90625,-0.34375,4.84375
1664986613778,-0.025878906,-0.79229736,0.28411865,6.921875,1.703125,3.6875
1664986613783,0.020263672,-0.7505493,0.26898193,9.828125,5.875,4.0625
1664986613818,0.0017089844,-0.81817627,0.30755615,3.625,-1.390625,2.96875
1664986613852,-0.017333984,-0.6560669,0.32562256,-0.890625,-3.328125,0.78125
1664986613897,-0.04321289,-0.7383423,0.36541748,5.140625,1.96875,2.625
1664986613942,-0.033447266,-0.6309204,0.28875732,-0.5,-7.875,0.96875
1664986613970,-0.11206055,-0.8118286,0.39056396,0.984375,-1.125,-1.640625
1664986614044,-0.09326172,-0.8135376,0.3949585,-0.8125,11.125,-3.984375
1664986614063,0.23461914,-1.0706177,0.3378296,8.5,-1.421875,4.59375
1664986614090,0.23876953,-1.3596802,0.36517334,5.296875,-0.140625,2.625
1664986614168,0.26708984,-1.3831177,0.2909546,2.09375,-0.328125,-1.421875
1664986614175,0.1694336,-1.4651489,0.47821045,3.125,-2.890625,1.765625
1664986614213,0.1237793,-1.1133423,0.36297607,6.203125,-8.203125,-8.765625
1664986614255,0.14233398,-1.0759888,0.37249756,3.15625,-2.234375,-1.125
1664986614286,0.068115234,-0.8845825,0.2501831,5.875,-3.265625,-2.953125
1664986614346,-0.051757812,-0.7300415,0.29925537,16.921875,8.265625,-8.46875
1664986614376,0.095458984,-0.7617798,0.27191162,14.984375,4.0625,-7.890625
1664986614416,0.075927734,-0.7769165,0.19036865,3.171875,4.109375,-4.359375
1664986614450,0.036376953,-0.77178955,0.34783936,1.296875,4.65625,-2.625
1664986614497,-0.053222656,-0.74884033,0.2994995,-1.40625,1.765625,-7.765625
1664986614527,-0.06933594,-0.756897,0.45648193,-6.3125,12.453125,-13.03125
1664986614574,-0.011474609,-0.81427,0.33709717,-4.671875,8.3125,-7.375
1664986614604,0.12182617,-0.89068604,0.31536865,-1.0,10.0625,-1.78125
1664986614644,-0.02709961,-0.8230591,0.34466553,-2.546875,-1.28125,0.546875
1664986614689,0.055908203,-1.1592407,0.324646,-6.71875,-0.828125,6.65625
1664986614719,0.24267578,-1.1506958,0.15472412,-4.75,-5.90625,12.40625
1664986614794,-0.16699219,-1.2722778,0.44451904,-13.234375,4.078125,2.59375
1664986614810,0.16259766,-1.3120728,0.097351074,2.21875,-7.109375,3.671875
1664986614838,0.08984375,-1.1970825,0.5192261,-0.125,2.34375,-0.140625
1664986614915,0.0056152344,-1.0886841,0.24359131,3.96875,-3.109375,3.09375
1664986614929,-0.06542969,-0.9500122,0.23553467,7.0625,-0.984375,-0.21875
1664986614961,0.018798828,-0.7737427,0.28997803,10.25,0.625,2.28125
1664986615005,-0.05102539,-0.80181885,0.24700928,7.890625,-3.859375,3.046875
1664986615051,0.014404297,-0.72784424,0.20526123,7.640625,0.203125,2.4375
1664986615080,-0.022705078,-0.8369751,0.2723999,0.171875,-1.421875,3.96875
1664986615124,0.0061035156,-0.7202759,0.24285889,-6.96875,-8.0625,0.921875
1664986615155,-0.03857422,-0.6260376,0.2999878,-0.5625,-7.484375,-0.171875
1664986615199,-0.07348633,-0.7908325,0.34490967,-3.5,-6.40625,-1.59375
1664986615248,-0.22241211,-0.7962036,0.36663818,-0.609375,7.75,-11.28125
1664986615275,-0.07519531,-0.95269775,0.3859253,0.59375,2.5625,-7.0625
