# Sensor type: Thingy
# Activity type: Standing
# Activity code: 100
# Subject id: s1918275
# Notes: 
timestamp,accel_x,accel_y,accel_z,gyro_x,gyro_y,gyro_z,mag_x,mag_y,mag_z
1664627833252,-0.99902344,0.14355469,-0.045898438,1.40625,1.84375,-0.8125,0.0,0.0,0.0
1664627833282,-1.0087891,0.13671875,-0.056640625,-0.53125,3.4375,-1.0625,0.0,0.0,0.0
1664627833311,-1.0029297,0.16015625,-0.064453125,-6.53125,2.03125,-1.53125,0.0,0.0,0.0
1664627833373,-1.0146484,0.12402344,-0.0546875,-6.78125,2.6875,2.1875,0.0,0.0,0.0
1664627833405,-0.99609375,0.12988281,-0.052734375,-11.28125,2.375,1.4375,0.0,0.0,0.0
1664627833435,-1.0126953,0.125,-0.051757812,-12.75,4.09375,-0.0625,0.0,0.0,0.0
1664627833495,-1.0117188,0.15722656,-0.080078125,-18.25,2.8125,-1.21875,0.0,0.0,0.0
1664627833529,-0.9970703,0.15625,-0.059570312,-18.96875,3.5,-0.125,-126.4375,-0.6875,-136.125
1664627833553,-0.98535156,0.10839844,-0.055664062,-18.625,4.03125,3.21875,0.0,0.0,0.0
1664627833613,-0.99121094,0.115234375,-0.06542969,-15.5,3.90625,2.75,0.0,0.0,0.0
1664627833643,-1.0234375,0.10644531,-0.06347656,-12.6875,6.53125,1.21875,0.0,0.0,0.0
1664627833674,-1.0087891,0.099609375,-0.05859375,-12.25,5.0625,0.40625,0.0,0.0,0.0
1664627833734,-1.0117188,0.11035156,-0.043945312,-11.59375,4.34375,-0.5625,0.0,0.0,0.0
1664627833764,-1.0,0.13769531,-0.072265625,-8.84375,2.5625,-0.125,0.0,0.0,0.0
1664627833794,-0.9970703,0.13867188,-0.047851562,-10.375,2.5,-0.25,0.0,0.0,0.0
1664627833857,-1.0166016,0.15527344,-0.052734375,-10.25,3.125,-0.25,0.0,0.0,0.0
1664627833886,-1.0078125,0.14453125,-0.09082031,-10.6875,1.15625,-0.25,0.0,0.0,0.0
1664627833919,-0.9873047,0.13574219,-0.080078125,-14.71875,1.65625,-1.71875,0.0,0.0,0.0
1664627833974,-1.0410156,0.12597656,0.04296875,-24.84375,0.1875,-6.0,0.0,0.0,0.0
1664627834009,-1.03125,-0.03515625,-0.3076172,32.65625,-39.90625,0.46875,-126.875,0.0625,-139.125
1664627834034,-1.0009766,0.23828125,-0.041992188,-15.0625,38.875,-13.0,0.0,0.0,0.0
1664627834096,-1.0244141,0.119140625,0.11621094,14.65625,8.125,11.53125,0.0,0.0,0.0
1664627834123,-0.9863281,0.16601562,-0.09082031,-10.5625,-10.6875,9.5,0.0,0.0,0.0
1664627834153,-1.0380859,0.09667969,-0.041992188,-17.21875,-2.0625,4.625,0.0,0.0,0.0
1664627834217,-1.0,0.046875,-0.119140625,0.375,4.34375,-3.375,0.0,0.0,0.0
1664627834247,-1.0205078,0.13769531,0.01171875,-1.59375,2.6875,-6.90625,0.0,0.0,0.0
1664627834275,-0.99902344,0.16210938,-0.032226562,-0.25,-5.71875,-0.9375,0.0,0.0,0.0
1664627834334,-0.9941406,0.095703125,-0.08984375,10.1875,-4.6875,3.65625,0.0,0.0,0.0
1664627834365,-1.0136719,0.057617188,-0.051757812,3.78125,-2.96875,-1.90625,0.0,0.0,0.0
1664627834401,-1.0078125,0.13378906,-0.09863281,7.4375,-0.46875,-3.4375,0.0,0.0,0.0
1664627834453,-1.0136719,0.15332031,-0.025390625,15.875,2.25,2.4375,0.0,0.0,0.0
1664627834489,-1.0,0.13867188,-0.080078125,11.1875,-3.28125,4.375,0.0,0.0,0.0
1664627834515,-0.9902344,0.1484375,-0.064453125,4.8125,-2.5,2.5625,-126.625,-0.125,-140.0
1664627834574,-1.0117188,0.13378906,-0.052734375,4.65625,-1.65625,2.5625,0.0,0.0,0.0
1664627834605,-0.9951172,0.140625,-0.07714844,4.53125,-0.96875,-1.0,0.0,0.0,0.0
1664627834634,-1.0087891,0.15625,-0.034179688,-1.59375,-0.25,-3.25,0.0,0.0,0.0
1664627834693,-0.99902344,0.13964844,-0.059570312,-2.5,-2.8125,-1.34375,0.0,0.0,0.0
1664627834726,-0.9941406,0.11425781,-0.05078125,-6.15625,-1.34375,-2.21875,0.0,0.0,0.0
1664627834753,-0.99609375,0.15136719,-0.04296875,0.125,-0.125,-0.5625,0.0,0.0,0.0
1664627834813,-1.0019531,0.13574219,-0.0390625,4.15625,1.03125,3.40625,0.0,0.0,0.0
1664627834845,-1.0087891,0.13867188,-0.026367188,1.28125,0.25,2.4375,0.0,0.0,0.0
1664627834874,-0.9980469,0.15332031,-0.044921875,-0.375,0.125,0.65625,0.0,0.0,0.0
1664627834933,-1.0068359,0.13769531,-0.051757812,-2.5625,1.40625,0.0625,0.0,0.0,0.0
1664627834964,-1.0039062,0.13769531,-0.053710938,-4.75,0.75,-0.9375,0.0,0.0,0.0
1664627835025,-1.0029297,0.12402344,-0.047851562,-2.75,1.03125,-0.25,-125.5625,0.5,-138.9375
1664627835062,-1.0029297,0.12792969,-0.055664062,-1.53125,0.8125,0.0,0.0,0.0,0.0
1664627835085,-1.0,0.12597656,-0.052734375,-1.46875,1.03125,-0.0625,0.0,0.0,0.0
1664627835113,-1.0087891,0.119140625,-0.044921875,-0.375,0.5625,-0.625,0.0,0.0,0.0
1664627835173,-1.0009766,0.111328125,-0.057617188,-0.5,0.0625,-1.125,0.0,0.0,0.0
1664627835208,-1.0039062,0.12890625,-0.045898438,-0.125,0.3125,-1.0,0.0,0.0,0.0
1664627835254,-1.0039062,0.12792969,-0.059570312,0.90625,0.5,-0.9375,0.0,0.0,0.0
1664627835293,-1.0097656,0.12207031,-0.0546875,2.09375,0.5625,-0.5,0.0,0.0,0.0
1664627835326,-1.0048828,0.12109375,-0.0625,2.09375,0.5625,-0.5,0.0,0.0,0.0
1664627835355,-1.0087891,0.13183594,-0.043945312,1.65625,1.03125,-1.0,0.0,0.0,0.0
1664627835414,-0.98828125,0.13183594,-0.0546875,1.03125,0.5,-1.0,0.0,0.0,0.0
1664627835444,-0.99902344,0.11816406,-0.051757812,1.09375,0.1875,-1.40625,0.0,0.0,0.0
1664627835475,-1.0029297,0.12011719,-0.05078125,1.84375,-0.53125,-1.84375,0.0,0.0,0.0
1664627835535,-1.0039062,0.12988281,-0.06347656,1.71875,-0.1875,-1.21875,-125.125,0.3125,-139.125
1664627835568,-1.0029297,0.11816406,-0.060546875,0.75,0.0,-0.4375,0.0,0.0,0.0
1664627835597,-0.9970703,0.11816406,-0.059570312,1.21875,0.4375,0.0625,0.0,0.0,0.0
1664627835653,-1.0029297,0.119140625,-0.0546875,2.3125,0.25,-0.0625,0.0,0.0,0.0
1664627835685,-1.0048828,0.12109375,-0.06347656,1.21875,0.625,-0.3125,0.0,0.0,0.0
1664627835713,-1.0087891,0.123046875,-0.051757812,-0.125,0.125,-0.4375,0.0,0.0,0.0
1664627835774,-0.9921875,0.119140625,-0.060546875,-0.0625,0.375,-0.375,0.0,0.0,0.0
1664627835807,-0.99609375,0.11816406,-0.043945312,-0.25,0.1875,0.40625,0.0,0.0,0.0
1664627835833,-1.0136719,0.10449219,-0.06738281,2.625,-1.09375,0.96875,0.0,0.0,0.0
1664627835896,-1.0185547,0.09667969,-0.06640625,3.1875,-0.0625,0.0625,0.0,0.0,0.0
1664627835926,-0.9970703,0.1171875,-0.0546875,1.46875,0.375,-1.40625,0.0,0.0,0.0
1664627835956,-1.0058594,0.119140625,-0.05078125,1.65625,0.5625,-1.0625,0.0,0.0,0.0
1664627836015,-0.99902344,0.12011719,-0.055664062,1.65625,0.0625,-0.1875,-127.0625,0.5,-140.0
1664627836046,-1.0068359,0.11425781,-0.061523438,1.21875,0.0,-0.1875,0.0,0.0,0.0
1664627836073,-1.0097656,0.11230469,-0.0546875,1.90625,-0.40625,-0.25,0.0,0.0,0.0
1664627836133,-1.0175781,0.13378906,-0.064453125,1.65625,-0.3125,-0.3125,0.0,0.0,0.0
1664627836167,-0.99902344,0.11425781,-0.049804688,2.25,0.375,0.28125,0.0,0.0,0.0
1664627836194,-1.0136719,0.12597656,-0.053710938,1.71875,0.8125,0.84375,0.0,0.0,0.0
1664627836253,-1.0175781,0.11816406,-0.048828125,1.59375,0.4375,0.21875,0.0,0.0,0.0
1664627836283,-1.015625,0.11816406,-0.0546875,2.125,-0.34375,0.46875,0.0,0.0,0.0
1664627836314,-1.0019531,0.11328125,-0.061523438,4.28125,-1.09375,0.53125,0.0,0.0,0.0
1664627836374,-1.0029297,0.12011719,-0.072265625,2.9375,-0.78125,0.46875,0.0,0.0,0.0
1664627836403,-1.0019531,0.11621094,-0.068359375,0.96875,-0.59375,0.0625,0.0,0.0,0.0
1664627836434,-1.0058594,0.12207031,-0.05859375,0.3125,-0.34375,-0.4375,0.0,0.0,0.0
1664627836492,-1.0058594,0.125,-0.0703125,0.375,-0.1875,-0.5,0.0,0.0,0.0
1664627836523,-1.0048828,0.12695312,-0.06738281,-0.125,-0.34375,-0.375,-126.125,0.3125,-138.5
1664627836556,-1.0087891,0.123046875,-0.06542969,-0.25,-0.78125,0.0625,0.0,0.0,0.0
1664627836615,-1.0146484,0.119140625,-0.0625,-0.25,-1.46875,-0.375,0.0,0.0,0.0
1664627836644,-1.0087891,0.11328125,-0.0546875,-0.53125,-1.15625,-0.3125,0.0,0.0,0.0
1664627836679,-1.0136719,0.11816406,-0.049804688,-1.40625,-0.84375,-0.4375,0.0,0.0,0.0
1664627836734,-0.9951172,0.11328125,-0.05859375,0.125,-1.09375,0.34375,0.0,0.0,0.0
1664627836787,-1.0029297,0.123046875,-0.044921875,1.96875,0.1875,0.84375,0.0,0.0,0.0
1664627836795,-1.0136719,0.125,-0.034179688,-0.1875,1.09375,0.28125,0.0,0.0,0.0
1664627836853,-1.0097656,0.10546875,-0.044921875,-0.53125,-0.65625,0.28125,0.0,0.0,0.0
1664627836884,-1.0058594,0.12890625,-0.060546875,-0.125,0.0625,0.15625,0.0,0.0,0.0
1664627836914,-1.0029297,0.109375,-0.036132812,-0.3125,0.3125,0.78125,0.0,0.0,0.0
1664627836976,-0.99121094,0.12207031,-0.057617188,0.375,0.0625,1.21875,0.0,0.0,0.0
1664627837003,-1.0097656,0.13378906,-0.051757812,0.0,1.59375,1.6875,-125.375,-0.6875,-138.8125
1664627837034,-1.0097656,0.119140625,-0.0546875,-0.96875,1.03125,1.6875,0.0,0.0,0.0
1664627837093,-1.0,0.13378906,-0.056640625,-0.3125,0.0,0.59375,0.0,0.0,0.0
1664627837123,-1.0068359,0.111328125,-0.05859375,-1.9375,0.25,0.53125,0.0,0.0,0.0
1664627837153,-1.0117188,0.123046875,-0.045898438,-2.125,0.75,0.59375,0.0,0.0,0.0
1664627837213,-1.0048828,0.12402344,-0.03125,-1.03125,1.03125,0.53125,0.0,0.0,0.0
1664627837246,-1.0029297,0.13183594,-0.05078125,-0.65625,0.75,0.34375,0.0,0.0,0.0
1664627837303,-1.0087891,0.1328125,-0.048828125,-1.03125,0.75,1.03125,0.0,0.0,0.0
1664627837333,-0.99902344,0.13085938,-0.060546875,-1.34375,0.96875,1.5625,0.0,0.0,0.0
1664627837363,-1.0,0.12890625,-0.0625,0.0,1.46875,0.90625,0.0,0.0,0.0
1664627837393,-1.0048828,0.123046875,-0.055664062,0.75,1.21875,0.28125,0.0,0.0,0.0
1664627837455,-1.015625,0.12597656,-0.060546875,0.625,0.1875,-0.3125,0.0,0.0,0.0
1664627837484,-1.0068359,0.12695312,-0.08105469,0.0,0.125,-1.125,0.0,0.0,0.0
1664627837514,-1.0039062,0.13085938,-0.056640625,-0.59375,0.4375,-0.6875,-124.625,0.625,-139.5625
1664627837573,-1.0048828,0.12890625,-0.057617188,-0.53125,0.96875,0.15625,0.0,0.0,0.0
1664627837603,-1.0087891,0.12402344,-0.05859375,-0.3125,0.4375,0.46875,0.0,0.0,0.0
1664627837633,-1.0078125,0.125,-0.064453125,-0.65625,0.375,0.0625,0.0,0.0,0.0
1664627837694,-0.9970703,0.125,-0.061523438,-1.34375,0.25,-0.4375,0.0,0.0,0.0
1664627837726,-1.0019531,0.12597656,-0.07519531,-0.53125,0.0625,-0.4375,0.0,0.0,0.0
1664627837753,-1.0019531,0.12011719,-0.076171875,0.375,0.4375,-0.375,0.0,0.0,0.0
1664627837816,-1.0078125,0.12695312,-0.07421875,0.6875,0.375,-0.4375,0.0,0.0,0.0
1664627837843,-1.0136719,0.12402344,-0.06640625,-0.84375,0.25,-0.3125,0.0,0.0,0.0
1664627837875,-1.0019531,0.12402344,-0.05859375,-0.59375,0.3125,-0.3125,0.0,0.0,0.0
1664627837934,-1.0019531,0.12109375,-0.06738281,0.5,0.25,-0.1875,0.0,0.0,0.0
1664627837963,-1.0078125,0.11816406,-0.0703125,0.75,0.5,-0.375,0.0,0.0,0.0
1664627837995,-1.015625,0.123046875,-0.061523438,0.625,0.0,-0.3125,-125.125,0.3125,-140.125
1664627838053,-0.9970703,0.14355469,-0.06347656,0.0625,-0.25,-0.1875,0.0,0.0,0.0
1664627838086,-0.9941406,0.13085938,-0.06542969,-0.84375,0.625,0.84375,0.0,0.0,0.0
1664627838115,-1.0087891,0.12011719,-0.051757812,-1.71875,0.25,0.40625,0.0,0.0,0.0
1664627838175,-1.0087891,0.12792969,-0.06738281,-2.4375,0.8125,0.40625,0.0,0.0,0.0
1664627838204,-1.0058594,0.119140625,-0.057617188,-1.15625,0.375,0.65625,0.0,0.0,0.0
1664627838232,-1.0058594,0.1328125,-0.05078125,-0.4375,-0.0625,-0.6875,0.0,0.0,0.0
1664627838291,-1.0019531,0.13085938,-0.055664062,-1.78125,-0.40625,-1.125,0.0,0.0,0.0
1664627838323,-1.0097656,0.12109375,-0.059570312,-2.1875,0.25,0.0,0.0,0.0,0.0
1664627838354,-1.0048828,0.12402344,-0.05859375,-1.8125,-0.125,-0.0625,0.0,0.0,0.0
1664627838414,-0.9980469,0.125,-0.07128906,-2.5,0.125,0.125,0.0,0.0,0.0
1664627838444,-1.0048828,0.12402344,-0.055664062,-2.4375,0.0,0.15625,0.0,0.0,0.0
1664627838475,-1.0019531,0.12207031,-0.053710938,-2.875,0.375,-0.3125,0.0,0.0,0.0
1664627838534,-1.0029297,0.10839844,-0.064453125,-2.75,0.0,-0.25,-128.125,0.9375,-139.375
1664627838565,-1.0087891,0.11035156,-0.0625,-1.8125,0.3125,0.0625,0.0,0.0,0.0
1664627838599,-1.0019531,0.11816406,-0.06933594,-1.40625,0.4375,-0.5,0.0,0.0,0.0
1664627838653,-1.0029297,0.12207031,-0.061523438,-1.28125,0.4375,-0.1875,0.0,0.0,0.0
1664627838685,-1.0009766,0.12988281,-0.057617188,0.25,-0.0625,-0.3125,0.0,0.0,0.0
1664627838712,-1.0009766,0.12109375,-0.05859375,0.0,-0.34375,-0.5,0.0,0.0,0.0
1664627838773,-1.0087891,0.11621094,-0.07421875,0.125,-0.46875,-0.5625,0.0,0.0,0.0
1664627838802,-1.0019531,0.11328125,-0.056640625,0.90625,-0.25,-0.625,0.0,0.0,0.0
1664627838835,-1.0048828,0.13183594,-0.06347656,1.28125,-0.1875,-0.375,0.0,0.0,0.0
1664627838893,-1.0029297,0.12207031,-0.0625,0.90625,-0.3125,-0.375,0.0,0.0,0.0
1664627838925,-1.0097656,0.123046875,-0.059570312,1.40625,-0.40625,-0.3125,0.0,0.0,0.0
1664627838954,-1.0019531,0.12011719,-0.06933594,1.40625,-0.59375,0.0625,0.0,0.0,0.0
1664627839016,-1.0166016,0.111328125,-0.06933594,1.90625,0.0625,0.40625,-127.0625,1.5625,-139.6875
1664627839044,-1.0009766,0.12109375,-0.0625,2.4375,-0.0625,0.28125,0.0,0.0,0.0
1664627839076,-1.0097656,0.12109375,-0.049804688,2.5,0.125,-0.25,0.0,0.0,0.0
1664627839135,-1.0068359,0.12597656,-0.059570312,1.34375,-0.46875,-0.75,0.0,0.0,0.0
1664627839163,-1.0058594,0.12207031,-0.068359375,1.34375,-1.09375,-1.0625,0.0,0.0,0.0
1664627839195,-1.0058594,0.123046875,-0.061523438,2.09375,-0.71875,-0.9375,0.0,0.0,0.0
1664627839253,-1.0029297,0.123046875,-0.06933594,1.09375,-0.78125,-0.5,0.0,0.0,0.0
1664627839283,-1.0078125,0.11816406,-0.06347656,0.5625,-0.78125,-0.875,0.0,0.0,0.0
1664627839316,-1.0009766,0.1171875,-0.05078125,0.5625,-0.59375,-0.5625,0.0,0.0,0.0
1664627839373,-1.0009766,0.11328125,-0.056640625,0.3125,-0.40625,0.0625,0.0,0.0,0.0
1664627839403,-1.0126953,0.10449219,-0.059570312,2.03125,-0.59375,0.15625,0.0,0.0,0.0
1664627839434,-1.0078125,0.11816406,-0.0546875,3.0625,-0.90625,-0.0625,0.0,0.0,0.0
1664627839493,-1.0048828,0.115234375,-0.04296875,1.71875,-0.46875,-0.125,0.0,0.0,0.0
1664627839523,-1.0087891,0.119140625,-0.05859375,1.03125,-0.71875,-0.0625,-126.625,0.9375,-138.625
1664627839587,-1.0078125,0.11816406,-0.059570312,0.25,-0.40625,0.125,0.0,0.0,0.0
1664627839648,-1.0058594,0.1171875,-0.048828125,-0.59375,0.0625,0.0,0.0,0.0,0.0
1664627839651,-1.0019531,0.123046875,-0.037109375,-0.0625,-0.53125,-0.125,0.0,0.0,0.0
1664627839675,-1.0107422,0.11425781,-0.05078125,0.4375,-0.125,-0.3125,0.0,0.0,0.0
1664627839732,-1.0097656,0.12402344,-0.043945312,0.125,-0.0625,-0.5625,0.0,0.0,0.0
1664627839764,-1.0068359,0.10839844,-0.06347656,0.625,-0.25,-0.1875,0.0,0.0,0.0
1664627839793,-1.0058594,0.107421875,-0.05078125,1.28125,-0.53125,-0.375,0.0,0.0,0.0
1664627839883,-1.0058594,0.12792969,-0.061523438,0.625,-0.34375,-0.3125,0.0,0.0,0.0
1664627839886,-1.0068359,0.11230469,-0.05078125,-0.59375,0.0,-0.25,0.0,0.0,0.0
1664627839914,-1.0058594,0.119140625,-0.056640625,-0.4375,0.375,-0.0625,0.0,0.0,0.0
1664627839974,-1.0029297,0.11425781,-0.061523438,0.625,0.625,0.28125,0.0,0.0,0.0
1664627840004,-1.0078125,0.11621094,-0.051757812,0.84375,0.375,0.28125,-126.625,1.25,-138.9375
1664627840034,-1.0097656,0.12109375,-0.056640625,0.375,0.25,0.15625,0.0,0.0,0.0
1664627840093,-1.0058594,0.11425781,-0.061523438,-0.53125,0.3125,0.125,0.0,0.0,0.0
1664627840125,-1.0068359,0.1171875,-0.043945312,-1.21875,-0.1875,-0.375,0.0,0.0,0.0
1664627840153,-1.0029297,0.11816406,-0.0625,-1.15625,0.75,-0.0625,0.0,0.0,0.0
1664627840273,-1.0068359,0.12011719,-0.052734375,0.8125,0.4375,0.78125,0.0,0.0,0.0
1664627840279,-1.0048828,0.115234375,-0.059570312,0.4375,0.375,0.34375,0.0,0.0,0.0
1664627840283,-1.0078125,0.12109375,-0.061523438,-0.5,0.4375,0.15625,0.0,0.0,0.0
1664627840333,-1.0058594,0.11621094,-0.055664062,0.125,0.0,0.0,0.0,0.0,0.0
1664627840365,-1.0078125,0.11816406,-0.044921875,-0.25,-0.25,0.125,0.0,0.0,0.0
1664627840393,-1.0078125,0.107421875,-0.072265625,0.1875,-0.3125,0.28125,0.0,0.0,0.0
1664627840457,-0.99609375,0.11425781,-0.052734375,0.8125,0.25,-0.1875,0.0,0.0,0.0
1664627840485,-1.0039062,0.119140625,-0.051757812,0.125,0.0,0.28125,0.0,0.0,0.0
1664627840514,-1.0087891,0.111328125,-0.0625,-0.1875,-0.3125,0.0,-127.5,0.3125,-139.875
1664627840574,-1.0068359,0.11230469,-0.051757812,0.1875,-0.1875,-0.0625,0.0,0.0,0.0
1664627840604,-1.0078125,0.12207031,-0.059570312,0.625,-0.46875,0.0,0.0,0.0,0.0
1664627840633,-1.0048828,0.12207031,-0.0546875,0.0625,-0.125,0.0,0.0,0.0,0.0
1664627840693,-1.0019531,0.115234375,-0.0625,-0.25,-0.1875,-0.3125,0.0,0.0,0.0
1664627840727,-1.0039062,0.111328125,-0.049804688,0.625,-0.0625,-0.1875,0.0,0.0,0.0
1664627840759,-1.0009766,0.12011719,-0.08105469,0.625,-0.25,-0.4375,0.0,0.0,0.0
1664627840814,-1.0048828,0.12109375,-0.061523438,-0.0625,0.0,-0.375,0.0,0.0,0.0
1664627840843,-1.0068359,0.125,-0.049804688,0.125,-0.0625,-0.25,0.0,0.0,0.0
1664627840876,-1.0117188,0.12109375,-0.048828125,0.625,-0.34375,-0.125,0.0,0.0,0.0
1664627840934,-1.0126953,0.12207031,-0.052734375,0.375,-0.53125,-0.125,0.0,0.0,0.0
1664627840966,-1.0058594,0.11230469,-0.055664062,-0.1875,-0.46875,-0.4375,0.0,0.0,0.0
1664627840995,-1.0058594,0.119140625,-0.048828125,-0.5,-0.65625,-0.6875,-126.3125,-0.5625,-140.0
1664627841054,-1.0039062,0.11621094,-0.059570312,-0.375,-0.53125,-0.6875,0.0,0.0,0.0
1664627841086,-1.0078125,0.119140625,-0.049804688,-0.1875,-0.90625,-0.3125,0.0,0.0,0.0
1664627841113,-1.0048828,0.11328125,-0.05078125,0.3125,-0.59375,0.0,0.0,0.0,0.0
1664627841174,-1.0126953,0.12011719,-0.0546875,-0.65625,-0.46875,0.125,0.0,0.0,0.0
1664627841205,-1.0019531,0.11035156,-0.053710938,-0.84375,-0.65625,0.21875,0.0,0.0,0.0
1664627841233,-1.0,0.11816406,-0.049804688,-0.65625,-0.40625,0.15625,0.0,0.0,0.0
1664627841293,-1.0117188,0.12109375,-0.051757812,-0.25,-0.34375,0.125,0.0,0.0,0.0
1664627841324,-1.0068359,0.10546875,-0.056640625,0.0625,-0.78125,-0.125,0.0,0.0,0.0
1664627841353,-1.0058594,0.119140625,-0.06347656,-0.0625,-0.78125,-0.5625,0.0,0.0,0.0
1664627841414,-1.0039062,0.11425781,-0.052734375,0.90625,-1.03125,-0.3125,0.0,0.0,0.0
1664627841448,-1.0019531,0.11816406,-0.0546875,0.6875,-0.90625,-0.3125,0.0,0.0,0.0
1664627841474,-1.0039062,0.11816406,-0.048828125,-0.3125,-0.46875,-0.0625,0.0,0.0,0.0
1664627841533,-1.0048828,0.11621094,-0.052734375,-0.59375,-0.78125,0.21875,-126.125,0.0625,-139.5625
1664627841565,-1.0097656,0.12597656,-0.047851562,-0.96875,-0.46875,-0.125,0.0,0.0,0.0
1664627841594,-1.0039062,0.115234375,-0.051757812,-0.5,-0.65625,0.28125,0.0,0.0,0.0
1664627841655,-1.0097656,0.12011719,-0.057617188,0.0,-0.53125,0.40625,0.0,0.0,0.0
1664627841687,-1.0117188,0.115234375,-0.04296875,-0.71875,-0.1875,0.34375,0.0,0.0,0.0
1664627841726,-1.0,0.11328125,-0.040039062,-0.78125,-0.46875,0.34375,0.0,0.0,0.0
1664627841744,-1.0029297,0.10644531,-0.044921875,0.1875,-0.0625,0.78125,0.0,0.0,0.0
1664627841806,-1.0068359,0.10546875,-0.053710938,0.0625,0.5,0.46875,0.0,0.0,0.0
1664627841866,-1.0146484,0.111328125,-0.040039062,0.5,0.125,0.34375,0.0,0.0,0.0
1664627841869,-1.0058594,0.11328125,-0.055664062,0.75,-0.3125,0.21875,0.0,0.0,0.0
1664627841927,-0.99609375,0.12207031,-0.057617188,0.84375,-0.125,0.15625,0.0,0.0,0.0
1664627841953,-1.0078125,0.119140625,-0.041992188,0.5625,0.25,0.125,0.0,0.0,0.0
1664627842012,-1.0019531,0.12109375,-0.040039062,0.625,0.5625,0.40625,-125.25,0.9375,-139.375
1664627842045,-1.0029297,0.11230469,-0.05078125,0.3125,0.875,0.53125,0.0,0.0,0.0
1664627842074,-0.99902344,0.12109375,-0.06542969,0.5,1.03125,0.71875,0.0,0.0,0.0
1664627842103,-1.0009766,0.11230469,-0.051757812,0.84375,1.03125,0.59375,0.0,0.0,0.0
1664627842165,-1.0087891,0.11425781,-0.046875,0.75,0.8125,0.46875,0.0,0.0,0.0
1664627842198,-1.0078125,0.12597656,-0.047851562,0.90625,0.0625,0.125,0.0,0.0,0.0
1664627842226,-1.0058594,0.12402344,-0.049804688,0.8125,-0.1875,-0.25,0.0,0.0,0.0
1664627842283,-0.9980469,0.1328125,-0.053710938,-0.0625,0.25,0.46875,0.0,0.0,0.0
1664627842314,-1.0,0.12402344,-0.046875,-0.4375,0.75,0.71875,0.0,0.0,0.0
1664627842405,-1.0175781,0.12597656,-0.05078125,0.125,0.5625,0.84375,0.0,0.0,0.0
1664627842408,-1.0078125,0.115234375,-0.056640625,-0.0625,0.4375,0.71875,0.0,0.0,0.0
1664627842438,-1.0097656,0.11035156,-0.06738281,-1.46875,0.4375,0.0,0.0,0.0,0.0
1664627842524,-1.0029297,0.12695312,-0.047851562,-0.65625,0.4375,0.40625,-126.4375,0.625,-138.1875
1664627842527,-1.0078125,0.12597656,-0.0625,0.125,0.5625,0.53125,0.0,0.0,0.0
1664627842554,-0.99902344,0.12597656,-0.048828125,-0.90625,0.6875,0.34375,0.0,0.0,0.0
1664627842584,-1.0029297,0.123046875,-0.055664062,-1.875,1.21875,0.40625,0.0,0.0,0.0
1664627842653,-1.0107422,0.119140625,-0.046875,-1.40625,0.9375,0.21875,0.0,0.0,0.0
1664627842674,-0.9970703,0.125,-0.0546875,-0.96875,0.5,0.40625,0.0,0.0,0.0
1664627842707,-1.0097656,0.11621094,-0.049804688,-0.3125,0.1875,0.28125,0.0,0.0,0.0
1664627842762,-1.0048828,0.11425781,-0.053710938,0.25,0.25,0.0625,0.0,0.0,0.0
1664627842794,-1.0039062,0.12792969,-0.056640625,0.4375,0.1875,0.21875,0.0,0.0,0.0
1664627842823,-1.0048828,0.119140625,-0.057617188,-0.59375,0.5625,0.15625,0.0,0.0,0.0
1664627842887,-1.0058594,0.119140625,-0.048828125,-0.25,0.1875,-0.0625,0.0,0.0,0.0
1664627842912,-0.9921875,0.11621094,-0.05078125,0.0625,0.3125,0.0,0.0,0.0,0.0
1664627842945,-1.0087891,0.11621094,-0.044921875,-0.3125,0.125,0.0,0.0,0.0,0.0
1664627843007,-1.0029297,0.11425781,-0.052734375,-0.3125,0.3125,-0.5625,-126.125,0.3125,-138.5
1664627843032,-1.0087891,0.111328125,-0.05078125,0.1875,0.4375,-0.0625,0.0,0.0,0.0
1664627843063,-0.9951172,0.123046875,-0.043945312,0.90625,0.125,-0.4375,0.0,0.0,0.0
1664627843124,-1.0048828,0.12890625,-0.056640625,1.09375,0.0,-0.5,0.0,0.0,0.0
1664627843154,-0.99902344,0.12402344,-0.047851562,0.0625,0.125,-0.625,0.0,0.0,0.0
1664627843194,-1.0068359,0.12597656,-0.055664062,-0.53125,0.0625,-0.625,0.0,0.0,0.0
1664627843242,-1.0087891,0.10839844,-0.046875,0.0625,0.0625,-0.125,0.0,0.0,0.0
1664627843272,-0.9970703,0.12109375,-0.053710938,0.84375,0.1875,0.0625,0.0,0.0,0.0
1664627843304,-1.0117188,0.12988281,-0.0546875,0.625,-0.0625,0.125,0.0,0.0,0.0
1664627843365,-1.0019531,0.123046875,-0.06347656,-0.125,-0.1875,0.0,0.0,0.0,0.0
1664627843395,-1.0039062,0.11816406,-0.057617188,-0.90625,0.0,0.28125,0.0,0.0,0.0
1664627843424,-1.0009766,0.11328125,-0.05078125,-1.09375,0.3125,-0.125,0.0,0.0,0.0
1664627843485,-1.0087891,0.12011719,-0.044921875,0.1875,0.125,-0.25,0.0,0.0,0.0
1664627843513,-1.0107422,0.12597656,-0.038085938,0.25,-0.3125,-0.125,-127.0625,0.1875,-138.9375
1664627843543,-1.0,0.115234375,-0.060546875,-0.3125,-0.40625,-0.25,0.0,0.0,0.0
1664627843605,-1.0058594,0.12109375,-0.057617188,0.5,-0.34375,0.0,0.0,0.0,0.0
1664627843634,-1.0029297,0.123046875,-0.052734375,0.96875,-0.125,0.15625,0.0,0.0,0.0
1664627843666,-1.0,0.1171875,-0.041015625,0.5,0.1875,0.15625,0.0,0.0,0.0
1664627843724,-1.0185547,0.11621094,-0.059570312,0.0625,-0.1875,-0.0625,0.0,0.0,0.0
1664627843753,-1.0039062,0.12402344,-0.048828125,-0.65625,-0.25,-0.0625,0.0,0.0,0.0
1664627843784,-0.99902344,0.12011719,-0.037109375,-0.125,-0.65625,-0.0625,0.0,0.0,0.0
1664627843843,-1.0,0.119140625,-0.0546875,0.90625,-0.90625,0.15625,0.0,0.0,0.0
1664627843873,-1.0166016,0.115234375,-0.05859375,-0.3125,0.0,0.0625,0.0,0.0,0.0
1664627843904,-1.0048828,0.11816406,-0.055664062,-2.375,0.1875,0.0625,0.0,0.0,0.0
1664627843964,-0.9951172,0.125,-0.056640625,-0.65625,-0.125,0.125,0.0,0.0,0.0
1664627843993,-1.0107422,0.12207031,-0.05078125,2.5,-0.71875,-0.125,-126.4375,0.3125,-138.8125
1664627844023,-1.0078125,0.12207031,-0.0703125,1.59375,-1.03125,-0.75,0.0,0.0,0.0
1664627844085,-1.0136719,0.11425781,-0.064453125,-1.40625,-0.96875,-1.125,0.0,0.0,0.0
1664627844146,-1.0039062,0.125,-0.059570312,-1.46875,-0.71875,-1.59375,0.0,0.0,0.0
1664627844149,-1.0039062,0.11621094,-0.041015625,1.03125,-0.40625,-0.5625,0.0,0.0,0.0
1664627844204,-1.0126953,0.12402344,-0.0390625,1.84375,-0.78125,0.40625,0.0,0.0,0.0
1664627844235,-1.0185547,0.11621094,-0.053710938,0.75,-0.65625,0.40625,0.0,0.0,0.0
1664627844263,-1.0009766,0.11230469,-0.04296875,-0.0625,-0.84375,-0.25,0.0,0.0,0.0
1664627844328,-1.0029297,0.119140625,-0.038085938,-0.1875,-0.46875,-0.6875,0.0,0.0,0.0
1664627844355,-1.0126953,0.109375,-0.05859375,-0.4375,-0.125,-0.8125,0.0,0.0,0.0
1664627844383,-1.0078125,0.115234375,-0.045898438,0.25,-0.71875,-0.6875,0.0,0.0,0.0
1664627844446,-1.0107422,0.12207031,-0.056640625,0.1875,-0.59375,-0.8125,0.0,0.0,0.0
1664627844472,-1.0107422,0.12011719,-0.060546875,-0.59375,-0.84375,-0.625,0.0,0.0,0.0
1664627844503,-1.0,0.10449219,-0.052734375,-0.0625,-0.40625,0.125,-125.375,1.0625,-139.5625
1664627844563,-1.015625,0.1171875,-0.045898438,-0.84375,0.125,-0.25,0.0,0.0,0.0
1664627844595,-1.0146484,0.11328125,-0.033203125,-0.71875,-0.3125,-0.25,0.0,0.0,0.0
1664627844624,-1.0039062,0.11621094,-0.037109375,-0.125,-0.59375,-0.625,0.0,0.0,0.0
1664627844686,-1.0048828,0.119140625,-0.056640625,-0.59375,-0.40625,-0.5625,0.0,0.0,0.0
1664627844715,-1.0048828,0.11035156,-0.034179688,-1.03125,0.1875,-0.25,0.0,0.0,0.0
1664627844742,-1.0087891,0.10839844,-0.0390625,-1.40625,0.0625,-0.25,0.0,0.0,0.0
1664627844806,-1.0068359,0.111328125,-0.044921875,-0.3125,-0.125,-0.125,0.0,0.0,0.0
1664627844833,-1.0117188,0.115234375,-0.028320312,-0.4375,-0.40625,-0.25,0.0,0.0,0.0
1664627844862,-1.0009766,0.11425781,-0.03125,-0.71875,-0.46875,-0.5,0.0,0.0,0.0
1664627844924,-0.9980469,0.115234375,-0.048828125,-0.65625,0.0625,-0.5625,0.0,0.0,0.0
1664627844954,-1.0107422,0.11425781,-0.041015625,0.125,-0.3125,-0.3125,0.0,0.0,0.0
1664627844984,-1.0058594,0.11425781,-0.040039062,-0.125,-0.0625,-0.8125,-126.625,1.25,-137.625
1664627845043,-1.0039062,0.11425781,-0.0390625,-0.71875,-0.125,-0.625,0.0,0.0,0.0
1664627845073,-1.0117188,0.115234375,-0.044921875,0.25,-0.0625,-0.125,0.0,0.0,0.0
1664627845110,-1.0058594,0.103515625,-0.043945312,0.5,-0.0625,-0.3125,0.0,0.0,0.0
1664627845163,-1.0029297,0.107421875,-0.051757812,0.0,-0.0625,-0.8125,0.0,0.0,0.0
1664627845196,-1.0048828,0.11035156,-0.043945312,0.25,0.25,-0.8125,0.0,0.0,0.0
1664627845224,-1.0058594,0.107421875,-0.036132812,-0.90625,-0.3125,-0.875,0.0,0.0,0.0
1664627845283,-1.0048828,0.10449219,-0.055664062,-0.3125,-0.59375,-1.15625,0.0,0.0,0.0
1664627845315,-1.0097656,0.10839844,-0.05078125,1.59375,-1.09375,-0.875,0.0,0.0,0.0
1664627845345,-1.0068359,0.10546875,-0.045898438,0.96875,-1.03125,-0.5625,0.0,0.0,0.0
1664627845404,-1.0058594,0.12011719,-0.056640625,-0.25,-0.84375,-0.625,0.0,0.0,0.0
1664627845434,-1.0048828,0.103515625,-0.05078125,-0.96875,-0.125,-1.0,0.0,0.0,0.0
1664627845463,-0.99609375,0.11621094,-0.041992188,-0.71875,-0.0625,-0.625,0.0,0.0,0.0
1664627845529,-1.0068359,0.1015625,-0.036132812,-1.34375,0.25,-0.875,-125.875,0.0625,-138.5
1664627845553,-1.015625,0.10839844,-0.037109375,-1.46875,-0.34375,-0.8125,0.0,0.0,0.0
1664627845586,-1.0078125,0.11328125,-0.045898438,-0.4375,-0.78125,-0.3125,0.0,0.0,0.0
1664627845645,-1.0068359,0.111328125,-0.028320312,-0.90625,-0.1875,-0.25,0.0,0.0,0.0
1664627845674,-1.0078125,0.10449219,-0.034179688,-0.375,0.0625,-0.25,0.0,0.0,0.0
1664627845706,-1.0068359,0.109375,-0.03125,-0.125,-0.3125,-0.1875,0.0,0.0,0.0
1664627845764,-1.0087891,0.09375,-0.02734375,-0.78125,-0.65625,-0.4375,0.0,0.0,0.0
1664627845792,-1.0136719,0.109375,-0.025390625,-0.59375,-0.1875,-0.6875,0.0,0.0,0.0
1664627845825,-1.0097656,0.111328125,-0.037109375,0.3125,-0.34375,-0.1875,0.0,0.0,0.0
1664627845884,-1.0087891,0.10058594,-0.03125,-0.4375,-0.53125,0.15625,0.0,0.0,0.0
1664627845914,-1.015625,0.09765625,-0.043945312,-0.3125,-0.40625,0.125,0.0,0.0,0.0
1664627845941,-1.0107422,0.09765625,-0.038085938,0.0,-0.3125,-0.25,0.0,0.0,0.0
1664627846005,-1.0039062,0.09277344,-0.02734375,0.0625,-0.78125,-0.125,-127.1875,-0.4375,-138.1875
1664627846035,-1.0078125,0.10546875,-0.02734375,0.5,-0.46875,-0.125,0.0,0.0,0.0
1664627846063,-1.0097656,0.10058594,-0.029296875,0.8125,-0.96875,0.125,0.0,0.0,0.0
1664627846125,-0.9970703,0.095703125,-0.036132812,0.8125,-0.65625,-0.375,0.0,0.0,0.0
1664627846162,-1.0117188,0.109375,-0.040039062,0.5625,-0.53125,-0.375,0.0,0.0,0.0
1664627846183,-1.0136719,0.099609375,-0.030273438,0.25,-0.90625,0.125,0.0,0.0,0.0
1664627846245,-1.0009766,0.10253906,-0.026367188,-0.25,-0.34375,-0.25,0.0,0.0,0.0
1664627846276,-1.0048828,0.09765625,-0.030273438,0.0625,0.1875,-0.0625,0.0,0.0,0.0
1664627846304,-1.0068359,0.09765625,-0.030273438,1.15625,-0.34375,0.21875,0.0,0.0,0.0
1664627846364,-1.0126953,0.09765625,-0.02734375,0.0,-0.34375,0.125,0.0,0.0,0.0
1664627846423,-1.0039062,0.09375,-0.024414062,0.0625,-0.65625,-0.125,0.0,0.0,0.0
1664627846428,-1.0087891,0.09863281,-0.026367188,0.4375,-0.34375,-0.375,0.0,0.0,0.0
1664627846484,-1.0107422,0.1015625,-0.032226562,0.8125,-0.25,-0.25,0.0,0.0,0.0
1664627846515,-1.0087891,0.10058594,-0.025390625,0.4375,-0.34375,-0.0625,-126.3125,-0.5625,-135.9375
1664627846543,-1.0087891,0.09765625,-0.038085938,0.4375,-0.34375,0.125,0.0,0.0,0.0
1664627846602,-1.0107422,0.09375,-0.029296875,0.75,-0.1875,-0.0625,0.0,0.0,0.0
1664627846637,-1.0078125,0.10253906,-0.029296875,3.40625,-0.96875,-0.25,0.0,0.0,0.0
1664627846663,-1.0185547,0.10644531,-0.03125,2.5,-1.03125,-0.75,0.0,0.0,0.0
1664627846725,-1.0009766,0.10839844,-0.017578125,-0.0625,-0.1875,-0.875,0.0,0.0,0.0
1664627846754,-1.0068359,0.109375,-0.026367188,-0.78125,-0.53125,0.28125,0.0,0.0,0.0
1664627846785,-1.0146484,0.10644531,-0.0146484375,0.0,-0.40625,0.71875,0.0,0.0,0.0
1664627846844,-0.9980469,0.09277344,-0.040039062,-0.78125,0.0625,0.40625,0.0,0.0,0.0
1664627846873,-1.0087891,0.10253906,-0.033203125,-0.25,-0.1875,0.0625,0.0,0.0,0.0
1664627846903,-1.0126953,0.099609375,-0.028320312,-0.1875,-0.40625,-0.25,0.0,0.0,0.0
1664627846963,-1.0039062,0.10546875,-0.029296875,-1.03125,-0.125,-0.5,0.0,0.0,0.0
1664627846993,-1.0019531,0.09472656,-0.02734375,-1.65625,0.25,-0.125,-126.0,-0.5625,-137.3125
1664627847023,-1.0097656,0.083984375,-0.017578125,-0.1875,0.25,-0.0625,0.0,0.0,0.0
1664627847084,-1.0136719,0.1015625,-0.029296875,-0.125,0.625,-0.0625,0.0,0.0,0.0
1664627847115,-1.0175781,0.10253906,-0.0107421875,0.4375,-0.25,0.34375,0.0,0.0,0.0
1664627847145,-1.0,0.111328125,-0.033203125,0.90625,0.1875,0.40625,0.0,0.0,0.0
1664627847205,-0.99609375,0.103515625,-0.038085938,0.75,0.25,0.46875,0.0,0.0,0.0
1664627847234,-1.0136719,0.10253906,-0.043945312,-0.3125,0.1875,0.21875,0.0,0.0,0.0
1664627847264,-1.0097656,0.1015625,-0.038085938,-0.59375,0.96875,-0.625,0.0,0.0,0.0
1664627847326,-1.0136719,0.09765625,-0.03125,-0.90625,1.03125,-0.875,0.0,0.0,0.0
1664627847369,-1.0185547,0.11328125,-0.0234375,-1.71875,0.6875,-0.5625,0.0,0.0,0.0
1664627847383,-1.0048828,0.09082031,-0.0234375,-2.125,0.875,0.28125,0.0,0.0,0.0
1664627847442,-1.0126953,0.095703125,-0.03515625,-0.0625,0.5625,0.34375,0.0,0.0,0.0
1664627847472,-1.0175781,0.10058594,-0.034179688,0.90625,0.375,0.28125,0.0,0.0,0.0
1664627847505,-1.0048828,0.10546875,-0.046875,0.625,0.125,-0.625,-126.625,-0.5625,-138.9375
1664627847564,-1.0117188,0.10058594,-0.04296875,-1.65625,0.0,-1.15625,0.0,0.0,0.0
1664627847594,-1.0019531,0.09863281,-0.036132812,-2.125,0.125,-0.375,0.0,0.0,0.0
1664627847622,-1.0078125,0.091796875,-0.03515625,-1.28125,0.4375,0.53125,0.0,0.0,0.0
1664627847684,-1.0107422,0.083984375,-0.034179688,0.75,0.0625,0.53125,0.0,0.0,0.0
1664627847713,-1.0136719,0.09277344,-0.034179688,1.46875,0.1875,-0.1875,0.0,0.0,0.0
1664627847744,-1.0078125,0.1015625,-0.036132812,0.75,-0.34375,-0.625,0.0,0.0,0.0
1664627847805,-1.0107422,0.09765625,-0.038085938,0.84375,-0.78125,-0.5,0.0,0.0,0.0
1664627847836,-1.0117188,0.10449219,-0.0390625,0.6875,0.1875,0.46875,0.0,0.0,0.0
1664627847863,-1.0068359,0.10253906,-0.0234375,0.0,0.125,0.46875,0.0,0.0,0.0
1664627847923,-1.0107422,0.10449219,-0.038085938,0.0625,0.1875,0.0,0.0,0.0,0.0
1664627847957,-1.0058594,0.10058594,-0.037109375,-0.4375,0.0625,0.21875,0.0,0.0,0.0
1664627847983,-1.0107422,0.087890625,-0.0234375,-0.4375,0.125,0.125,-125.875,-0.6875,-137.75
1664627848043,-1.0068359,0.099609375,-0.0234375,-0.375,-0.34375,-0.25,0.0,0.0,0.0
1664627848074,-1.0117188,0.10058594,-0.032226562,-0.0625,0.125,0.0625,0.0,0.0,0.0
1664627848103,-1.0068359,0.095703125,-0.01953125,-0.84375,-0.25,-0.3125,0.0,0.0,0.0
1664627848162,-1.0048828,0.10253906,-0.017578125,-1.28125,-0.125,-0.25,0.0,0.0,0.0
1664627848197,-0.99902344,0.10058594,-0.041015625,-0.71875,-0.1875,0.15625,0.0,0.0,0.0
1664627848223,-1.0078125,0.09082031,-0.029296875,-0.125,0.0,0.0625,0.0,0.0,0.0
1664627848285,-1.0087891,0.095703125,-0.033203125,0.8125,0.25,0.34375,0.0,0.0,0.0
1664627848320,-1.0136719,0.09472656,-0.038085938,0.6875,0.3125,0.21875,0.0,0.0,0.0
1664627848344,-1.0107422,0.09765625,-0.026367188,0.0,0.5,0.21875,0.0,0.0,0.0
1664627848403,-1.0078125,0.09472656,-0.02734375,0.5,0.25,0.53125,0.0,0.0,0.0
1664627848434,-1.0146484,0.09277344,-0.047851562,0.96875,-0.3125,0.78125,0.0,0.0,0.0
1664627848463,-1.0117188,0.1015625,-0.03515625,0.25,0.5625,0.40625,0.0,0.0,0.0
1664627848523,-1.0117188,0.1015625,-0.040039062,1.03125,0.1875,0.0625,-125.375,-0.6875,-138.5
1664627848556,-1.0029297,0.107421875,-0.026367188,0.8125,0.625,0.84375,0.0,0.0,0.0
1664627848585,-1.0029297,0.10644531,-0.040039062,0.25,0.875,0.21875,0.0,0.0,0.0
1664627848645,-1.0166016,0.103515625,-0.041015625,1.34375,-0.0625,0.34375,0.0,0.0,0.0
1664627848707,-1.0107422,0.10546875,-0.041992188,1.03125,0.625,0.0625,0.0,0.0,0.0
1664627848714,-1.0097656,0.10839844,-0.034179688,0.25,0.3125,-0.375,0.0,0.0,0.0
1664627848764,-1.0039062,0.10253906,-0.03125,0.375,0.96875,0.0,0.0,0.0,0.0
1664627848793,-1.0058594,0.09863281,-0.0390625,0.4375,1.03125,0.28125,0.0,0.0,0.0
1664627848824,-1.0068359,0.10253906,-0.03125,0.125,0.9375,0.65625,0.0,0.0,0.0
1664627848884,-1.0185547,0.099609375,-0.046875,-0.125,0.875,0.59375,0.0,0.0,0.0
1664627848914,-1.0,0.11035156,-0.028320312,0.1875,1.03125,0.53125,0.0,0.0,0.0
1664627848943,-1.0039062,0.09765625,-0.034179688,0.625,1.40625,0.90625,0.0,0.0,0.0
1664627849002,-1.0087891,0.09667969,-0.026367188,0.75,1.15625,0.90625,-127.375,1.5625,-138.625
1664627849032,-1.0009766,0.103515625,-0.046875,0.5625,0.0625,0.40625,0.0,0.0,0.0
1664627849063,-1.0078125,0.10058594,-0.04296875,-0.84375,-0.3125,0.125,0.0,0.0,0.0
1664627849123,-0.9951172,0.10546875,-0.04296875,-1.15625,-0.1875,0.28125,0.0,0.0,0.0
1664627849158,-1.0029297,0.09082031,-0.048828125,0.5625,1.03125,0.46875,0.0,0.0,0.0
1664627849187,-1.0048828,0.09667969,-0.04296875,1.65625,0.5,0.59375,0.0,0.0,0.0
1664627849244,-1.0126953,0.107421875,-0.061523438,0.84375,0.8125,0.34375,0.0,0.0,0.0
1664627849274,-1.0087891,0.099609375,-0.038085938,-1.28125,0.0625,-0.25,0.0,0.0,0.0
1664627849303,-1.0039062,0.10839844,-0.05078125,-0.5,0.0,0.15625,0.0,0.0,0.0
1664627849365,-1.0019531,0.099609375,-0.034179688,0.0,0.625,0.28125,0.0,0.0,0.0
1664627849397,-1.0107422,0.109375,-0.043945312,0.125,0.4375,0.21875,0.0,0.0,0.0
1664627849426,-1.0039062,0.099609375,-0.043945312,0.3125,0.5,0.125,0.0,0.0,0.0
1664627849484,-1.0107422,0.1015625,-0.038085938,0.5625,0.625,0.21875,0.0,0.0,0.0
1664627849513,-1.0126953,0.10644531,-0.044921875,1.15625,0.3125,0.28125,-127.1875,-0.6875,-138.5
1664627849547,-1.0097656,0.11425781,-0.038085938,0.0625,0.75,0.59375,0.0,0.0,0.0
1664627849607,-1.0058594,0.10546875,-0.041015625,-0.3125,0.125,0.40625,0.0,0.0,0.0
1664627849633,-1.0039062,0.11621094,-0.059570312,-0.1875,0.1875,-0.0625,0.0,0.0,0.0
1664627849663,-1.0068359,0.109375,-0.043945312,-1.15625,0.1875,0.15625,0.0,0.0,0.0
1664627849725,-1.0136719,0.099609375,-0.052734375,-2.4375,0.75,0.46875,0.0,0.0,0.0
1664627849756,-1.0087891,0.103515625,-0.046875,-0.59375,0.6875,0.46875,0.0,0.0,0.0
1664627849785,-1.0136719,0.10839844,-0.05078125,0.625,0.5625,0.65625,0.0,0.0,0.0
1664627849843,-1.0048828,0.095703125,-0.04296875,0.125,0.3125,0.28125,0.0,0.0,0.0
1664627849874,-1.0019531,0.11328125,-0.041992188,0.0,0.1875,-0.1875,0.0,0.0,0.0
1664627849903,-1.0019531,0.11328125,-0.051757812,0.375,-0.1875,0.15625,0.0,0.0,0.0
1664627849964,-1.0058594,0.11328125,-0.05078125,0.375,0.125,0.46875,0.0,0.0,0.0
1664627849993,-1.0078125,0.11816406,-0.0546875,0.375,0.8125,0.84375,-126.0,-0.125,-138.375
1664627850022,-1.0117188,0.10546875,-0.022460938,-0.1875,0.75,0.78125,0.0,0.0,0.0
1664627850087,-1.0087891,0.10644531,-0.044921875,-1.78125,0.375,0.125,0.0,0.0,0.0
1664627850116,-1.0029297,0.095703125,-0.051757812,-1.59375,0.25,0.28125,0.0,0.0,0.0
1664627850144,-1.0097656,0.11621094,-0.052734375,-0.53125,0.4375,0.28125,0.0,0.0,0.0
1664627850206,-1.0019531,0.10839844,-0.03515625,-0.0625,0.5,0.40625,0.0,0.0,0.0
1664627850235,-1.0117188,0.10546875,-0.043945312,-0.65625,0.25,0.78125,0.0,0.0,0.0
1664627850264,-1.0039062,0.10839844,-0.044921875,-0.53125,0.125,1.15625,0.0,0.0,0.0
1664627850322,-1.0097656,0.10546875,-0.048828125,-0.65625,0.5625,0.84375,0.0,0.0,0.0
1664627850355,-1.0039062,0.11328125,-0.0390625,-0.125,0.5,0.46875,0.0,0.0,0.0
1664627850385,-1.0029297,0.11425781,-0.060546875,0.0625,0.5,0.59375,0.0,0.0,0.0
1664627850444,-1.0097656,0.11816406,-0.046875,-0.90625,0.625,0.28125,0.0,0.0,0.0
1664627850474,-1.0097656,0.111328125,-0.052734375,-2.5,0.75,0.0,0.0,0.0,0.0
1664627850503,-1.0068359,0.1015625,-0.045898438,-1.9375,1.21875,0.34375,-127.5,0.3125,-138.1875
1664627850565,-1.0048828,0.11621094,-0.041015625,0.1875,0.3125,0.84375,0.0,0.0,0.0
1664627850595,-1.0068359,0.10449219,-0.045898438,-0.4375,0.3125,0.90625,0.0,0.0,0.0
1664627850624,-1.0078125,0.09765625,-0.06640625,0.8125,0.625,0.59375,0.0,0.0,0.0
1664627850683,-1.0097656,0.11035156,-0.048828125,0.5625,0.625,0.53125,0.0,0.0,0.0
1664627850714,-1.0136719,0.10839844,-0.047851562,0.0,0.3125,0.34375,0.0,0.0,0.0
1664627850743,-0.9970703,0.109375,-0.048828125,0.6875,0.375,0.46875,0.0,0.0,0.0
1664627850804,-1.0078125,0.10839844,-0.061523438,0.25,0.25,-0.0625,0.0,0.0,0.0
1664627850835,-1.0019531,0.11328125,-0.037109375,0.0,-0.0625,-0.0625,0.0,0.0,0.0
1664627850863,-1.0019531,0.119140625,-0.051757812,0.375,0.0625,0.34375,0.0,0.0,0.0
1664627850924,-1.0,0.115234375,-0.05859375,1.09375,0.1875,0.0625,0.0,0.0,0.0
1664627850983,-1.0058594,0.123046875,-0.048828125,0.6875,-0.3125,-0.375,0.0,0.0,0.0
1664627850988,-1.0048828,0.125,-0.053710938,0.5625,0.0625,-0.0625,-126.4375,-0.6875,-139.5625
1664627851045,-0.99902344,0.12109375,-0.0546875,0.375,-0.46875,0.125,0.0,0.0,0.0
1664627851072,-0.9951172,0.123046875,-0.049804688,0.0,0.5625,0.0,0.0,0.0,0.0
1664627851103,-1.0097656,0.115234375,-0.041015625,0.25,0.3125,0.0,0.0,0.0,0.0
1664627851165,-1.0019531,0.11230469,-0.0546875,-0.5,0.125,-0.1875,0.0,0.0,0.0
1664627851198,-1.0029297,0.12109375,-0.051757812,-0.0625,0.0625,0.0625,0.0,0.0,0.0
1664627851224,-1.0068359,0.123046875,-0.049804688,0.375,0.25,0.125,0.0,0.0,0.0
1664627851286,-1.0029297,0.11816406,-0.0546875,-0.59375,0.25,0.21875,0.0,0.0,0.0
1664627851317,-1.0117188,0.12207031,-0.06933594,-0.84375,0.375,0.53125,0.0,0.0,0.0
1664627851344,-1.0039062,0.111328125,-0.038085938,-0.59375,0.0625,0.15625,0.0,0.0,0.0
1664627851404,-1.0058594,0.12011719,-0.060546875,0.25,-0.3125,0.0,0.0,0.0,0.0
1664627851436,-1.0078125,0.12011719,-0.048828125,0.5625,-0.1875,-0.125,0.0,0.0,0.0
1664627851465,-1.0039062,0.12011719,-0.064453125,1.78125,-0.46875,0.15625,0.0,0.0,0.0
1664627851525,-1.0107422,0.1171875,-0.044921875,1.65625,0.125,0.28125,-126.4375,0.0625,-138.8125
1664627851554,-1.0058594,0.119140625,-0.057617188,0.3125,0.125,0.21875,0.0,0.0,0.0
1664627851584,-1.0029297,0.11328125,-0.06347656,-0.125,0.25,0.21875,0.0,0.0,0.0
1664627851646,-1.0019531,0.11816406,-0.044921875,0.125,0.1875,0.15625,0.0,0.0,0.0
1664627851673,-1.0058594,0.123046875,-0.05078125,-0.4375,0.0,0.15625,0.0,0.0,0.0
1664627851704,-1.0087891,0.1171875,-0.06738281,-0.25,0.125,0.0625,0.0,0.0,0.0
1664627851766,-1.0097656,0.123046875,-0.06347656,0.125,-0.1875,-0.1875,0.0,0.0,0.0
1664627851795,-1.0068359,0.111328125,-0.044921875,0.5625,-0.1875,-0.125,0.0,0.0,0.0
1664627851829,-1.0078125,0.1171875,-0.048828125,0.0,0.1875,0.0,0.0,0.0,0.0
1664627851885,-0.9980469,0.12011719,-0.056640625,0.125,-0.125,0.0625,0.0,0.0,0.0
1664627851915,-1.0048828,0.123046875,-0.053710938,-0.375,-0.0625,-0.25,0.0,0.0,0.0
1664627851945,-1.0117188,0.12011719,-0.044921875,-0.125,-0.25,-0.125,0.0,0.0,0.0
1664627852002,-1.0078125,0.11425781,-0.048828125,-0.0625,-0.3125,0.28125,-125.875,1.0625,-139.875
1664627852034,-1.0,0.11425781,-0.059570312,-0.25,-0.0625,0.15625,0.0,0.0,0.0
1664627852097,-1.0058594,0.12792969,-0.051757812,0.4375,0.0,0.0625,0.0,0.0,0.0
1664627852124,-1.0039062,0.11425781,-0.052734375,-0.65625,-0.1875,0.15625,0.0,0.0,0.0
1664627852152,-1.0107422,0.123046875,-0.048828125,-0.71875,0.25,0.0,0.0,0.0,0.0
1664627852187,-1.0078125,0.111328125,-0.047851562,-0.0625,0.125,0.125,0.0,0.0,0.0
1664627852277,-1.0019531,0.11328125,-0.056640625,0.0625,0.0,0.34375,0.0,0.0,0.0
1664627852281,-1.0107422,0.119140625,-0.053710938,0.75,0.0625,0.15625,0.0,0.0,0.0
1664627852304,-1.0039062,0.12402344,-0.044921875,0.625,0.0,-0.1875,0.0,0.0,0.0
1664627852366,-1.0087891,0.125,-0.040039062,0.5,0.1875,0.0625,0.0,0.0,0.0
1664627852394,-1.0107422,0.12402344,-0.053710938,0.25,0.0625,-0.0625,0.0,0.0,0.0
1664627852423,-1.0117188,0.115234375,-0.056640625,0.25,-0.0625,-0.1875,0.0,0.0,0.0
1664627852512,-1.0048828,0.12011719,-0.056640625,-0.375,-0.46875,-0.0625,-125.875,-0.4375,-137.75
1664627852515,-1.0078125,0.125,-0.055664062,-0.78125,-0.1875,-0.0625,0.0,0.0,0.0
1664627852544,-1.0078125,0.123046875,-0.053710938,-1.21875,0.375,0.0625,0.0,0.0,0.0
1664627852605,-0.9902344,0.12109375,-0.057617188,-2.1875,0.375,0.0625,0.0,0.0,0.0
1664627852633,-1.0087891,0.099609375,-0.06347656,-1.8125,0.0,-0.375,0.0,0.0,0.0
1664627852666,-1.0097656,0.11425781,-0.04296875,-0.3125,0.0,-0.0625,0.0,0.0,0.0
1664627852723,-1.0048828,0.11035156,-0.049804688,-0.25,-0.40625,-0.125,0.0,0.0,0.0
1664627852754,-1.0009766,0.115234375,-0.056640625,0.84375,-0.3125,0.0625,0.0,0.0,0.0
1664627852783,-1.0029297,0.123046875,-0.048828125,0.96875,-0.3125,-0.3125,0.0,0.0,0.0
1664627852846,-1.0048828,0.12207031,-0.0546875,0.3125,-0.25,-0.1875,0.0,0.0,0.0
1664627852874,-1.0,0.11621094,-0.049804688,-0.375,-0.1875,0.0625,0.0,0.0,0.0
1664627852902,-1.0019531,0.12011719,-0.055664062,0.0625,-0.25,0.0625,0.0,0.0,0.0
1664627852965,-1.0058594,0.119140625,-0.045898438,0.375,0.1875,0.15625,0.0,0.0,0.0
1664627852994,-1.0078125,0.115234375,-0.041992188,0.84375,-0.125,0.59375,-125.5625,-0.125,-138.9375
1664627853023,-1.0048828,0.11328125,-0.044921875,0.75,-0.40625,0.21875,0.0,0.0,0.0
1664627853090,-0.9970703,0.12207031,-0.033203125,-0.0625,-0.0625,0.0625,0.0,0.0,0.0
1664627853115,-0.99902344,0.123046875,-0.053710938,0.3125,-0.0625,-0.0625,0.0,0.0,0.0
1664627853143,-0.99902344,0.12207031,-0.051757812,0.3125,0.5625,0.40625,0.0,0.0,0.0
1664627853205,-1.0039062,0.12109375,-0.05078125,0.25,0.1875,0.0,0.0,0.0,0.0
1664627853265,-1.0185547,0.11230469,-0.046875,0.375,0.5,-0.1875,0.0,0.0,0.0
1664627853267,-1.0048828,0.115234375,-0.048828125,-0.1875,0.0,-0.375,0.0,0.0,0.0
1664627853327,-1.0048828,0.1171875,-0.05078125,-0.53125,0.0625,-0.25,0.0,0.0,0.0
1664627853358,-1.0078125,0.10839844,-0.05859375,-0.1875,0.125,0.0,0.0,0.0,0.0
1664627853386,-1.0019531,0.11816406,-0.06347656,-0.0625,-0.125,-0.0625,0.0,0.0,0.0
1664627853442,-1.0039062,0.12109375,-0.048828125,-0.4375,-0.125,-0.25,0.0,0.0,0.0
1664627853473,-1.0097656,0.11328125,-0.056640625,-0.375,-0.1875,-0.125,0.0,0.0,0.0
1664627853503,-1.0019531,0.11816406,-0.044921875,-0.0625,-0.34375,0.0,-127.5,1.0625,-136.6875
1664627853564,-1.0009766,0.11816406,-0.049804688,-0.65625,-0.34375,0.0,0.0,0.0,0.0
1664627853593,-1.0068359,0.11035156,-0.049804688,-0.125,-0.59375,0.0,0.0,0.0,0.0
1664627853624,-1.0019531,0.115234375,-0.048828125,-0.0625,-0.40625,-0.1875,0.0,0.0,0.0
1664627853683,-1.0126953,0.109375,-0.041015625,-0.3125,-0.46875,-0.4375,0.0,0.0,0.0
1664627853713,-1.0146484,0.12695312,-0.043945312,-0.1875,-0.53125,0.34375,0.0,0.0,0.0
1664627853746,-1.0029297,0.115234375,-0.0546875,-0.53125,-0.25,0.34375,0.0,0.0,0.0
1664627853803,-1.0009766,0.12207031,-0.049804688,-0.0625,-0.0625,0.34375,0.0,0.0,0.0
1664627853834,-1.0,0.12109375,-0.044921875,0.375,0.25,0.84375,0.0,0.0,0.0
1664627853863,-1.0029297,0.11425781,-0.041015625,0.84375,0.4375,0.53125,0.0,0.0,0.0
1664627853923,-1.0136719,0.12792969,-0.045898438,0.125,0.0625,0.34375,0.0,0.0,0.0
1664627853955,-1.0039062,0.125,-0.046875,-0.90625,-0.84375,-0.375,0.0,0.0,0.0
1664627853984,-1.0009766,0.11035156,-0.049804688,-0.59375,-0.96875,-0.1875,-127.1875,0.3125,-138.8125
1664627854013,-1.0029297,0.119140625,-0.046875,0.625,-0.34375,0.15625,0.0,0.0,0.0
1664627854072,-1.0048828,0.11816406,-0.059570312,0.4375,-0.34375,0.125,0.0,0.0,0.0
1664627854103,-1.0048828,0.123046875,-0.038085938,-0.125,-0.25,0.21875,0.0,0.0,0.0
1664627854134,-1.0039062,0.115234375,-0.048828125,0.5625,0.0,0.65625,0.0,0.0,0.0
1664627854193,-1.0214844,0.11425781,-0.045898438,1.71875,-0.46875,0.40625,0.0,0.0,0.0
1664627854224,-1.0,0.12207031,-0.05859375,0.25,-0.3125,0.0,0.0,0.0,0.0
1664627854253,-1.0097656,0.13085938,-0.059570312,-0.59375,-0.59375,-0.125,0.0,0.0,0.0
1664627854314,-1.0029297,0.125,-0.043945312,-1.28125,-0.25,0.21875,0.0,0.0,0.0
1664627854343,-1.0058594,0.11425781,-0.046875,-1.09375,0.25,0.0625,0.0,0.0,0.0
1664627854373,-1.0068359,0.11425781,-0.02734375,-0.90625,0.25,0.0625,0.0,0.0,0.0
1664627854433,-1.0039062,0.10839844,-0.041992188,-1.34375,0.0625,0.125,0.0,0.0,0.0
1664627854464,-1.0058594,0.11230469,-0.036132812,-0.84375,-0.125,-0.3125,0.0,0.0,0.0
1664627854525,-1.0029297,0.11816406,-0.045898438,-0.25,-0.0625,-0.0625,-125.875,-0.4375,-139.875
1664627854553,-1.0087891,0.111328125,-0.048828125,0.5625,-0.0625,0.28125,0.0,0.0,0.0
1664627854584,-1.0087891,0.11816406,-0.044921875,0.375,-0.1875,0.0,0.0,0.0,0.0
1664627854617,-1.0039062,0.11328125,-0.04296875,-0.4375,0.0,-0.1875,0.0,0.0,0.0
1664627854675,-1.0009766,0.11621094,-0.049804688,-0.0625,0.0625,0.0625,0.0,0.0,0.0
1664627854702,-1.0146484,0.11621094,-0.045898438,0.1875,0.0625,0.15625,0.0,0.0,0.0
1664627854732,-1.0087891,0.111328125,-0.041992188,0.5,-0.71875,0.0,0.0,0.0,0.0
1664627854793,-1.0048828,0.109375,-0.028320312,0.5625,-0.59375,0.0625,0.0,0.0,0.0
1664627854826,-1.0039062,0.12109375,-0.04296875,1.53125,-0.65625,0.0625,0.0,0.0,0.0
1664627854854,-1.0078125,0.1328125,-0.057617188,1.71875,-0.40625,-0.0625,0.0,0.0,0.0
1664627854913,-1.0068359,0.12792969,-0.048828125,-0.5,0.3125,0.34375,0.0,0.0,0.0
1664627854949,-1.0078125,0.125,-0.02734375,-0.53125,0.3125,0.28125,0.0,0.0,0.0
1664627854973,-1.0107422,0.12597656,-0.046875,-0.5,-0.40625,-0.0625,-125.5625,-0.5625,-138.375
1664627855035,-1.0078125,0.12792969,-0.041992188,-0.53125,-0.1875,-0.0625,0.0,0.0,0.0
1664627855064,-1.0058594,0.11328125,-0.041015625,-1.21875,0.0625,0.0,0.0,0.0,0.0
1664627855092,-1.0029297,0.1171875,-0.041015625,-0.78125,-0.25,0.125,0.0,0.0,0.0
1664627855153,-1.0048828,0.11621094,-0.045898438,-0.0625,0.0,0.15625,0.0,0.0,0.0
1664627855183,-1.0136719,0.12011719,-0.036132812,-0.53125,0.125,0.15625,0.0,0.0,0.0
1664627855212,-1.0039062,0.12011719,-0.026367188,-1.28125,-0.125,0.15625,0.0,0.0,0.0
1664627855276,-1.0039062,0.12402344,-0.041992188,-0.53125,0.25,0.28125,0.0,0.0,0.0
1664627855303,-1.0087891,0.12207031,-0.044921875,-0.84375,0.125,0.0,0.0,0.0,0.0
1664627855333,-1.0078125,0.12402344,-0.034179688,-1.28125,-0.125,0.125,0.0,0.0,0.0
1664627855392,-1.0009766,0.107421875,-0.041015625,-0.84375,-0.34375,-0.0625,0.0,0.0,0.0
1664627855425,-1.0039062,0.12695312,-0.043945312,-1.28125,-0.1875,-0.3125,0.0,0.0,0.0
1664627855454,-1.0107422,0.11425781,-0.037109375,-0.71875,0.1875,-0.3125,0.0,0.0,0.0
1664627855544,-0.99902344,0.12207031,-0.046875,-1.21875,0.0625,0.28125,-125.875,1.375,-138.8125
1664627855550,-0.9980469,0.12402344,-0.038085938,-0.53125,0.4375,-0.25,0.0,0.0,0.0
1664627855573,-1.0078125,0.12011719,-0.0390625,-0.0625,0.1875,-0.5,0.0,0.0,0.0
1664627855634,-1.0126953,0.115234375,-0.046875,-0.375,0.0625,-0.5625,0.0,0.0,0.0
1664627855665,-1.0009766,0.119140625,-0.033203125,-0.25,0.0,-0.4375,0.0,0.0,0.0
1664627855695,-1.0019531,0.11328125,-0.05078125,0.625,0.4375,-0.3125,0.0,0.0,0.0
1664627855752,-1.0029297,0.12109375,-0.041992188,1.53125,0.5,0.125,0.0,0.0,0.0
1664627855791,-1.0019531,0.119140625,-0.041015625,1.28125,0.375,-0.0625,0.0,0.0,0.0
1664627855812,-1.0097656,0.12207031,-0.044921875,0.0,-0.1875,-0.5625,0.0,0.0,0.0
1664627855876,-1.0048828,0.11816406,-0.045898438,0.375,-0.25,-0.5,0.0,0.0,0.0
1664627855904,-1.0058594,0.115234375,-0.041992188,1.09375,0.125,-0.3125,0.0,0.0,0.0
1664627855935,-1.0078125,0.12792969,-0.037109375,0.90625,0.125,-0.0625,0.0,0.0,0.0
1664627855993,-1.0058594,0.115234375,-0.048828125,0.6875,-0.0625,-0.3125,-126.4375,0.0625,-137.75
1664627856025,-1.0029297,0.12109375,-0.03125,-0.0625,-0.125,-0.25,0.0,0.0,0.0
1664627856057,-1.0068359,0.12011719,-0.051757812,-0.53125,-0.1875,-0.125,0.0,0.0,0.0
1664627856114,-1.0048828,0.1171875,-0.0234375,-0.5,0.125,0.21875,0.0,0.0,0.0
1664627856144,-1.0009766,0.111328125,-0.033203125,-0.1875,0.125,-0.25,0.0,0.0,0.0
1664627856177,-1.0078125,0.12109375,-0.038085938,-0.1875,0.3125,0.0625,0.0,0.0,0.0
1664627856233,-1.0117188,0.10839844,-0.041015625,-1.28125,0.125,-0.3125,0.0,0.0,0.0
1664627856265,-1.0009766,0.10839844,-0.044921875,-0.3125,0.0625,-0.375,0.0,0.0,0.0
1664627856294,-1.0078125,0.11328125,-0.045898438,0.625,-0.125,-0.0625,0.0,0.0,0.0
1664627856356,-1.0107422,0.1171875,-0.03125,1.15625,-0.46875,-0.4375,0.0,0.0,0.0
1664627856383,-1.0087891,0.125,-0.037109375,0.625,-0.0625,-0.5,0.0,0.0,0.0
1664627856417,-1.0048828,0.12695312,-0.043945312,-0.59375,-0.125,-0.25,0.0,0.0,0.0
1664627856474,-1.0087891,0.11230469,-0.036132812,-0.4375,0.0625,-0.375,0.0,0.0,0.0
1664627856503,-1.0,0.10839844,-0.03125,0.25,0.125,0.15625,-126.3125,0.9375,-137.875
1664627856534,-1.0029297,0.11230469,-0.036132812,0.25,0.375,0.0,0.0,0.0,0.0
1664627856595,-1.0068359,0.115234375,-0.04296875,0.3125,-0.1875,-0.4375,0.0,0.0,0.0
1664627856630,-1.0078125,0.115234375,-0.0390625,0.375,-0.1875,-0.4375,0.0,0.0,0.0
1664627856652,-1.0009766,0.12011719,-0.046875,0.0625,-0.3125,-0.1875,0.0,0.0,0.0
1664627856715,-1.0068359,0.119140625,-0.04296875,-0.125,0.0625,0.21875,0.0,0.0,0.0
1664627856744,-1.0078125,0.115234375,-0.040039062,0.90625,0.3125,0.125,0.0,0.0,0.0
1664627856775,-1.0087891,0.115234375,-0.038085938,0.375,0.1875,0.125,0.0,0.0,0.0
1664627856833,-1.0029297,0.115234375,-0.051757812,-0.5,0.1875,-0.125,0.0,0.0,0.0
1664627856867,-1.0087891,0.12207031,-0.0390625,-0.125,0.4375,0.21875,0.0,0.0,0.0
1664627856894,-1.0068359,0.10644531,-0.044921875,0.0625,-0.0625,0.40625,0.0,0.0,0.0
1664627856953,-1.0097656,0.107421875,-0.04296875,-0.375,-0.125,0.15625,0.0,0.0,0.0
1664627856983,-1.0068359,0.1171875,-0.048828125,0.5625,0.375,0.125,-127.9375,1.0625,-137.75
1664627857013,-1.0058594,0.109375,-0.0390625,0.375,0.0,0.125,0.0,0.0,0.0
1664627857072,-1.0087891,0.1171875,-0.0390625,0.5,-0.25,-0.125,0.0,0.0,0.0
1664627857103,-1.0048828,0.12109375,-0.037109375,0.6875,-0.125,0.0625,0.0,0.0,0.0
1664627857133,-1.0,0.123046875,-0.048828125,-0.0625,-0.3125,-0.1875,0.0,0.0,0.0
1664627857227,-1.0009766,0.12109375,-0.032226562,-0.5,-0.25,-0.1875,0.0,0.0,0.0
1664627857232,-1.0126953,0.12402344,-0.038085938,-0.0625,-0.125,0.0,0.0,0.0,0.0
1664627857255,-0.99902344,0.1171875,-0.037109375,-0.375,-0.0625,0.34375,0.0,0.0,0.0
1664627857314,-1.0,0.11035156,-0.036132812,0.0,0.0,0.28125,0.0,0.0,0.0
1664627857343,-1.0029297,0.119140625,-0.038085938,0.125,0.4375,-0.25,0.0,0.0,0.0
1664627857373,-1.0166016,0.11230469,-0.038085938,0.4375,0.0,-0.4375,0.0,0.0,0.0
1664627857434,-1.0087891,0.115234375,-0.038085938,-0.875,-0.3125,-0.59375,0.0,0.0,0.0
1664627857470,-1.0019531,0.111328125,-0.034179688,-0.125,0.0625,-0.25,0.0,0.0,0.0
1664627857493,-1.0058594,0.11230469,-0.024414062,-0.0625,0.28125,0.0625,-126.125,0.0625,-137.75
1664627857555,-1.0078125,0.12792969,-0.034179688,0.0,0.46875,-0.125,0.0,0.0,0.0
1664627857583,-1.0107422,0.115234375,-0.038085938,0.21875,0.21875,-0.125,0.0,0.0,0.0
1664627857613,-1.0097656,0.119140625,-0.041015625,0.53125,0.28125,-0.34375,0.0,0.0,0.0
1664627857674,-0.9970703,0.12011719,-0.033203125,0.0625,0.21875,-0.25,0.0,0.0,0.0
1664627857708,-1.0097656,0.115234375,-0.037109375,0.15625,0.15625,-0.3125,0.0,0.0,0.0
1664627857734,-1.0117188,0.115234375,-0.03515625,0.46875,0.28125,0.0,0.0,0.0,0.0
1664627857830,-1.0068359,0.12011719,-0.038085938,0.28125,0.28125,-0.1875,0.0,0.0,0.0
1664627857834,-1.0136719,0.12011719,-0.03515625,0.78125,0.40625,-0.3125,0.0,0.0,0.0
1664627857856,-1.0078125,0.11328125,-0.03125,0.15625,0.28125,0.0625,0.0,0.0,0.0
1664627857912,-1.0087891,0.10546875,-0.03125,0.28125,-0.125,0.0,0.0,0.0,0.0
1664627857953,-1.0117188,0.10839844,-0.041992188,0.46875,0.28125,0.0,0.0,0.0,0.0
1664627857975,-1.0087891,0.111328125,-0.04296875,0.34375,0.21875,-0.25,-127.375,0.1875,-136.5625
1664627858033,-1.0019531,0.11425781,-0.046875,0.40625,0.28125,-0.40625,0.0,0.0,0.0
1664627858064,-1.0087891,0.12207031,-0.030273438,0.65625,0.34375,-0.3125,0.0,0.0,0.0
1664627858092,-1.0019531,0.119140625,-0.028320312,0.21875,0.34375,-0.25,0.0,0.0,0.0
1664627858152,-1.0117188,0.107421875,-0.028320312,0.21875,0.34375,0.125,0.0,0.0,0.0
1664627858185,-1.0009766,0.11035156,-0.041015625,-0.0625,0.40625,-0.1875,0.0,0.0,0.0
1664627858213,-1.0117188,0.11230469,-0.032226562,-0.0625,0.40625,-0.125,0.0,0.0,0.0
1664627858273,-1.0058594,0.11328125,-0.03515625,-0.1875,0.34375,-0.1875,0.0,0.0,0.0
1664627858305,-1.0048828,0.115234375,-0.041015625,0.0625,0.34375,0.0,0.0,0.0,0.0
1664627858335,-1.0039062,0.11425781,-0.032226562,0.65625,0.28125,0.0,0.0,0.0,0.0
1664627858393,-1.0107422,0.11230469,-0.044921875,0.21875,0.34375,-0.25,0.0,0.0,0.0
1664627858425,-1.0107422,0.1171875,-0.05078125,-0.375,0.09375,-0.125,0.0,0.0,0.0
1664627858458,-1.0029297,0.111328125,-0.043945312,0.0625,0.40625,0.1875,0.0,0.0,0.0
1664627858515,-1.0009766,0.11328125,-0.047851562,0.15625,0.09375,-0.25,-127.0625,0.1875,-137.875
1664627858555,-1.0107422,0.10644531,-0.043945312,0.46875,0.0,0.0,0.0,0.0,0.0
1664627858573,-1.0078125,0.109375,-0.03515625,-0.125,-0.25,-0.34375,0.0,0.0,0.0
1664627858635,-0.9941406,0.115234375,-0.038085938,-0.125,-0.375,-0.46875,0.0,0.0,0.0
1664627858679,-1.0107422,0.11816406,-0.046875,0.34375,0.0625,0.125,0.0,0.0,0.0
1664627858695,-1.0097656,0.11328125,-0.047851562,0.0625,-0.25,0.0,0.0,0.0,0.0
1664627858754,-1.0078125,0.11035156,-0.036132812,0.28125,-0.1875,0.0625,0.0,0.0,0.0
1664627858783,-1.0087891,0.11816406,-0.041992188,0.46875,-0.125,-0.3125,0.0,0.0,0.0
1664627858813,-1.0185547,0.115234375,-0.040039062,0.28125,-0.5625,-0.3125,0.0,0.0,0.0
1664627858873,-1.0029297,0.111328125,-0.047851562,-0.25,-0.6875,-0.125,0.0,0.0,0.0
1664627858903,-1.0058594,0.11621094,-0.041015625,0.15625,-0.1875,0.3125,0.0,0.0,0.0
1664627858934,-1.0078125,0.115234375,-0.043945312,-0.25,-0.0625,0.25,0.0,0.0,0.0
1664627858993,-1.0175781,0.1015625,-0.036132812,-0.375,-0.3125,-0.125,0.0,0.0,0.0
1664627859024,-1.0019531,0.107421875,-0.028320312,-0.375,-0.6875,0.0,-127.375,0.1875,-136.5625
1664627859056,-1.0048828,0.107421875,-0.028320312,-0.8125,-0.375,0.125,0.0,0.0,0.0
1664627859114,-1.0126953,0.11816406,-0.04296875,-0.3125,-0.375,0.0,0.0,0.0,0.0
1664627859143,-1.0117188,0.11425781,-0.04296875,0.09375,-0.5,-0.25,0.0,0.0,0.0
1664627859174,-1.0039062,0.103515625,-0.034179688,-1.0625,-0.8125,-0.40625,0.0,0.0,0.0
1664627859233,-1.0068359,0.115234375,-0.03125,-0.0625,-0.875,-0.40625,0.0,0.0,0.0
1664627859263,-1.0058594,0.111328125,-0.046875,0.90625,-1.0,-0.25,0.0,0.0,0.0
1664627859298,-1.0087891,0.11425781,-0.0390625,0.0,-1.0,-0.46875,0.0,0.0,0.0
1664627859354,-1.0029297,0.115234375,-0.041992188,-0.5,-1.125,-0.46875,0.0,0.0,0.0
1664627859384,-1.0019531,0.11230469,-0.029296875,-0.25,-0.8125,-0.59375,0.0,0.0,0.0
1664627859414,-1.0068359,0.10449219,-0.037109375,-0.125,-1.125,-0.65625,0.0,0.0,0.0
1664627859475,-1.0087891,0.103515625,-0.030273438,-0.875,-1.28125,-1.09375,0.0,0.0,0.0
1664627859503,-1.015625,0.11621094,-0.032226562,-0.5625,-1.65625,-1.34375,-126.0,0.9375,-137.875
1664627859535,-0.99902344,0.107421875,-0.022460938,-1.65625,-1.84375,-1.59375,0.0,0.0,0.0
1664627859594,-1.0058594,0.109375,-0.026367188,-1.25,-1.59375,-1.40625,0.0,0.0,0.0
1664627859654,-0.99316406,0.10058594,-0.021484375,-0.125,-1.25,-0.3125,0.0,0.0,0.0
1664627859657,-1.0039062,0.09863281,-0.026367188,1.5625,-0.4375,0.0625,0.0,0.0,0.0
1664627859713,-1.0175781,0.10839844,-0.01953125,2.25,-0.4375,-1.15625,0.0,0.0,0.0
1664627859743,-0.9921875,0.111328125,-0.01953125,-0.5,-0.8125,-1.03125,0.0,0.0,0.0
1664627859772,-1.0029297,0.09863281,-0.017578125,-2.21875,-0.6875,-0.59375,0.0,0.0,0.0
1664627859832,-1.0009766,0.10449219,-0.025390625,0.96875,-0.6875,-0.0625,0.0,0.0,0.0
1664627859869,-1.0048828,0.09765625,-0.021484375,1.4375,-0.1875,-0.34375,0.0,0.0,0.0
1664627859892,-1.0078125,0.09667969,-0.0234375,1.9375,-0.3125,-0.40625,0.0,0.0,0.0
1664627859952,-1.0087891,0.10839844,-0.022460938,0.96875,-0.25,-0.3125,0.0,0.0,0.0
1664627859984,-1.0078125,0.115234375,-0.020507812,0.96875,-0.25,-0.53125,0.0,0.0,0.0
1664627860013,-0.99902344,0.10449219,-0.028320312,0.59375,0.0625,0.0625,-126.0,-0.875,-137.875
1664627860104,-1.0107422,0.10546875,-0.01953125,1.21875,0.09375,0.9375,0.0,0.0,0.0
1664627860109,-1.0058594,0.109375,-0.009765625,0.78125,0.40625,0.125,0.0,0.0,0.0
1664627860134,-1.0029297,0.09375,-0.015625,-0.5625,0.34375,-0.65625,0.0,0.0,0.0
1664627860193,-1.0039062,0.115234375,-0.0234375,-0.6875,-0.25,-0.84375,0.0,0.0,0.0
1664627860224,-1.0126953,0.095703125,-0.028320312,-0.4375,-0.0625,0.0625,0.0,0.0,0.0
1664627860253,-0.9941406,0.10449219,-0.015625,0.53125,0.28125,-0.25,0.0,0.0,0.0
1664627860315,-1.0117188,0.10449219,-0.036132812,0.34375,0.59375,-0.40625,0.0,0.0,0.0
1664627860345,-1.0136719,0.09472656,-0.020507812,-0.625,0.28125,-0.65625,0.0,0.0,0.0
1664627860373,-1.0136719,0.09765625,-0.021484375,-0.9375,0.0625,-0.40625,0.0,0.0,0.0
1664627860435,-1.0029297,0.10253906,-0.026367188,0.34375,0.40625,-0.59375,0.0,0.0,0.0
1664627860463,-1.0009766,0.10449219,-0.036132812,1.09375,0.28125,-0.34375,0.0,0.0,0.0
1664627860492,-1.015625,0.09082031,-0.021484375,0.09375,0.28125,-0.3125,-127.0625,0.1875,-137.0
1664627860554,-1.0068359,0.099609375,-0.02734375,-0.625,0.15625,-0.53125,0.0,0.0,0.0
1664627860585,-1.0068359,0.10253906,-0.009765625,0.15625,0.34375,-0.34375,0.0,0.0,0.0
1664627860613,-1.0136719,0.099609375,-0.026367188,0.40625,0.34375,-0.0625,0.0,0.0,0.0
1664627860674,-1.0224609,0.09472656,-0.02734375,0.90625,0.59375,0.25,0.0,0.0,0.0
1664627860709,-0.99902344,0.10644531,-0.025390625,0.78125,0.78125,0.0625,0.0,0.0,0.0
1664627860736,-1.0107422,0.10058594,-0.03125,0.84375,0.34375,-0.25,0.0,0.0,0.0
1664627860797,-1.0146484,0.10644531,-0.022460938,-0.375,0.53125,0.0625,0.0,0.0,0.0
1664627860825,-1.0117188,0.099609375,-0.016601562,-0.375,0.53125,0.125,0.0,0.0,0.0
1664627860853,-1.0097656,0.09277344,-0.02734375,0.21875,0.28125,-0.0625,0.0,0.0,0.0
1664627860914,-1.0087891,0.10449219,-0.034179688,0.46875,0.28125,-0.1875,0.0,0.0,0.0
1664627860944,-1.0058594,0.10546875,-0.026367188,-0.625,0.28125,-0.40625,0.0,0.0,0.0
1664627860974,-1.0078125,0.1015625,-0.036132812,0.0,0.28125,-0.0625,0.0,0.0,0.0
1664627861035,-1.0039062,0.09667969,-0.021484375,1.34375,0.0,0.0,-126.875,-0.4375,-137.125
1664627861065,-1.0068359,0.10449219,-0.021484375,0.28125,0.0,0.125,0.0,0.0,0.0
1664627861093,-1.0029297,0.1015625,-0.018554688,-0.1875,0.0625,-0.0625,0.0,0.0,0.0
1664627861155,-1.015625,0.09667969,-0.028320312,-0.6875,0.0,-0.25,0.0,0.0,0.0
1664627861184,-1.0107422,0.09863281,-0.0146484375,-0.25,-0.25,-0.125,0.0,0.0,0.0
1664627861213,-1.0087891,0.099609375,-0.016601562,-0.375,0.0625,0.1875,0.0,0.0,0.0
1664627861272,-1.0058594,0.09277344,-0.026367188,-0.75,-0.1875,0.3125,0.0,0.0,0.0
1664627861313,-1.0097656,0.095703125,-0.017578125,-0.875,0.15625,0.0625,0.0,0.0,0.0
1664627861335,-1.0107422,0.1015625,-0.028320312,-0.625,-0.3125,0.0625,0.0,0.0,0.0
1664627861396,-1.0,0.10058594,-0.026367188,-0.625,-0.125,0.75,0.0,0.0,0.0
1664627861423,-1.0087891,0.09667969,-0.036132812,-0.5,-0.0625,0.6875,0.0,0.0,0.0
1664627861453,-1.0146484,0.103515625,-0.030273438,-0.125,-0.25,0.25,0.0,0.0,0.0
1664627861513,-1.0048828,0.09863281,-0.021484375,-0.6875,-0.25,0.125,-126.625,0.9375,-137.3125
1664627861545,-1.0087891,0.09472656,-0.02734375,-1.34375,-0.25,0.125,0.0,0.0,0.0
1664627861572,-1.0048828,0.11035156,-0.016601562,-0.0625,-0.1875,0.125,0.0,0.0,0.0
1664627861632,-1.0126953,0.09277344,-0.016601562,0.53125,-0.125,0.5,0.0,0.0,0.0
1664627861665,-1.015625,0.09667969,-0.030273438,1.75,-0.6875,0.625,0.0,0.0,0.0
1664627861693,-1.0117188,0.103515625,-0.016601562,0.96875,-0.5,0.125,0.0,0.0,0.0
1664627861754,-1.0097656,0.103515625,-0.0146484375,1.28125,-0.1875,0.5625,0.0,0.0,0.0
1664627861784,-1.0097656,0.09765625,-0.0234375,1.4375,-0.5,1.40625,0.0,0.0,0.0
1664627861812,-0.9980469,0.103515625,-0.017578125,2.5625,-0.3125,1.09375,0.0,0.0,0.0
1664627861875,-1.0078125,0.107421875,-0.0234375,3.71875,-0.3125,0.0625,0.0,0.0,0.0
1664627861905,-1.0087891,0.11230469,-0.017578125,3.09375,-0.8125,-0.0625,0.0,0.0,0.0
1664627861935,-1.0048828,0.107421875,-0.026367188,1.875,-0.75,0.625,0.0,0.0,0.0
1664627861996,-1.0097656,0.10546875,-0.020507812,1.4375,-0.1875,0.5625,0.0,0.0,0.0
1664627862025,-1.0058594,0.10449219,-0.015625,1.6875,0.53125,-0.0625,-127.1875,-0.4375,-137.4375
1664627862052,-0.9980469,0.09863281,-0.018554688,1.6875,0.71875,0.125,0.0,0.0,0.0
1664627862114,-1.0224609,0.09277344,-0.0087890625,0.96875,0.53125,-0.59375,0.0,0.0,0.0
1664627862143,-1.0136719,0.10644531,-0.01953125,1.09375,0.0625,-0.78125,0.0,0.0,0.0
1664627862172,-1.0039062,0.09667969,-0.028320312,1.28125,0.46875,-0.40625,0.0,0.0,0.0
1664627862235,-1.0,0.10253906,-0.0234375,1.375,0.28125,-0.125,0.0,0.0,0.0
1664627862265,-1.0126953,0.1015625,-0.013671875,0.53125,0.78125,-0.1875,0.0,0.0,0.0
1664627862294,-1.0039062,0.103515625,-0.0068359375,-0.0625,0.53125,-0.34375,0.0,0.0,0.0
1664627862384,-1.0039062,0.10449219,-0.01953125,0.78125,0.71875,-0.53125,0.0,0.0,0.0
1664627862388,-1.0,0.10839844,-9.765625E-4,-0.5625,1.28125,-0.59375,0.0,0.0,0.0
1664627862413,-1.0107422,0.103515625,-0.018554688,-2.875,0.71875,-0.65625,0.0,0.0,0.0
1664627862472,-1.0048828,0.11035156,-0.0126953125,6.5625,-2.8125,2.21875,0.0,0.0,0.0
1664627862503,-1.0039062,0.07910156,-0.022460938,0.96875,-1.34375,0.8125,-125.875,-1.0,-137.125
1664627862534,-1.0019531,0.12988281,-0.041015625,-5.5,3.03125,1.46875,0.0,0.0,0.0
1664627862598,-1.0068359,0.06640625,-0.01171875,-5.8125,4.8125,2.21875,0.0,0.0,0.0
1664627862626,-1.0087891,0.08300781,-0.026367188,-0.125,1.5,0.25,0.0,0.0,0.0
1664627862656,-1.0087891,0.09277344,-0.0107421875,1.21875,1.375,0.3125,0.0,0.0,0.0
1664627862713,-1.0146484,0.09765625,-0.024414062,2.71875,1.28125,0.375,0.0,0.0,0.0
1664627862774,-1.0107422,0.107421875,-0.018554688,4.875,0.46875,-0.125,0.0,0.0,0.0
1664627862777,-1.0097656,0.10253906,-0.029296875,4.875,0.65625,0.0625,0.0,0.0,0.0
1664627862835,-1.0097656,0.10253906,-0.033203125,5.46875,1.28125,0.625,0.0,0.0,0.0
1664627862867,-1.0126953,0.11035156,-0.046875,5.59375,0.78125,0.4375,0.0,0.0,0.0
1664627862894,-1.0107422,0.111328125,-0.047851562,3.96875,0.90625,-0.78125,0.0,0.0,0.0
1664627862954,-0.9980469,0.12207031,-0.06640625,1.375,-0.4375,-1.875,0.0,0.0,0.0
1664627862989,-1.0195312,0.10449219,-0.0234375,4.3125,-1.90625,0.1875,0.0,0.0,0.0
1664627863012,-1.0058594,0.09863281,-0.055664062,5.78125,-2.46875,0.5,-126.3125,-1.3125,-137.875
1664627863074,-1.0068359,0.09863281,-0.030273438,4.5625,-0.1875,-0.1875,0.0,0.0,0.0
1664627863106,-1.0078125,0.08984375,-0.040039062,6.9375,-0.9375,0.25,0.0,0.0,0.0
1664627863133,-1.0019531,0.083984375,-0.041992188,9.5625,-0.3125,0.8125,0.0,0.0,0.0
1664627863198,-0.9970703,0.08496094,-0.03515625,11.40625,0.71875,0.875,0.0,0.0,0.0
1664627863226,-0.99902344,0.05859375,-0.021484375,13.90625,1.5625,1.71875,0.0,0.0,0.0
1664627863253,-1.0019531,0.057617188,-0.03125,19.40625,0.28125,1.71875,0.0,0.0,0.0
1664627863314,-1.0019531,0.07128906,-0.034179688,24.40625,2.78125,0.125,0.0,0.0,0.0
1664627863344,-1.0048828,0.06738281,-0.0146484375,24.8125,0.78125,1.40625,0.0,0.0,0.0
1664627863375,-0.99902344,0.08886719,-0.044921875,24.46875,0.09375,-0.0625,0.0,0.0,0.0
1664627863432,-1.0068359,0.12011719,-0.028320312,28.125,1.6875,-0.34375,0.0,0.0,0.0
1664627863463,-1.0029297,0.1484375,-0.048828125,18.78125,-1.28125,-0.96875,0.0,0.0,0.0
1664627863496,-0.99609375,0.15917969,-0.044921875,16.65625,-0.25,0.375,-126.125,-1.0,-134.3125
1664627863554,-1.0087891,0.09472656,-0.03125,19.875,0.15625,2.6875,0.0,0.0,0.0
1664627863616,-1.0263672,0.12011719,-0.076171875,16.15625,-1.78125,0.4375,0.0,0.0,0.0
1664627863619,-0.9951172,0.16894531,-0.0390625,10.71875,-0.375,-2.25,0.0,0.0,0.0
1664627863673,-0.9941406,0.123046875,-0.038085938,3.96875,0.28125,-0.3125,0.0,0.0,0.0
1664627863705,-0.9941406,0.083984375,-0.049804688,5.59375,1.28125,1.78125,0.0,0.0,0.0
1664627863735,-1.0117188,0.076171875,-0.025390625,10.0625,2.65625,2.3125,0.0,0.0,0.0
1664627863794,-1.0009766,0.08203125,-0.041015625,7.875,2.3125,0.4375,0.0,0.0,0.0
1664627863829,-1.0068359,0.119140625,-0.068359375,9.875,2.5625,-1.75,0.0,0.0,0.0
1664627863853,-1.0253906,0.13867188,-0.07910156,7.96875,1.8125,-1.21875,0.0,0.0,0.0
1664627863913,-1.0029297,0.16992188,-0.103515625,1.8125,0.71875,-1.65625,0.0,0.0,0.0
1664627863948,-1.0107422,0.16015625,-0.08496094,-4.90625,0.15625,-0.59375,0.0,0.0,0.0
1664627863972,-1.0097656,0.12792969,-0.076171875,-9.71875,0.40625,-0.59375,0.0,0.0,0.0
1664627864036,-1.0068359,0.087890625,-0.076171875,-7.28125,-1.96875,1.28125,-125.25,-0.5625,-134.4375
1664627864067,-1.0029297,0.048828125,-0.06347656,-8.5625,2.5,-0.65625,0.0,0.0,0.0
1664627864093,-1.0068359,0.072265625,-0.053710938,-4.40625,6.15625,-2.96875,0.0,0.0,0.0
1664627864153,-1.0146484,0.095703125,-0.06738281,-1.71875,3.84375,-1.875,0.0,0.0,0.0
1664627864185,-1.0136719,0.107421875,-0.06640625,0.59375,-0.375,-1.65625,0.0,0.0,0.0
1664627864215,-0.99902344,0.09375,-0.07519531,2.25,-2.34375,-0.0625,0.0,0.0,0.0
1664627864271,-1.0068359,0.08984375,-0.078125,1.5,0.59375,-0.40625,0.0,0.0,0.0
1664627864304,-1.0019531,0.09375,-0.06542969,1.875,1.21875,-0.46875,0.0,0.0,0.0
1664627864339,-1.0078125,0.08300781,-0.06738281,3.34375,0.53125,0.3125,0.0,0.0,0.0
1664627864395,-1.0166016,0.095703125,-0.07128906,4.0625,0.28125,0.0,0.0,0.0,0.0
1664627864427,-1.0019531,0.10839844,-0.08105469,4.6875,-0.875,-0.40625,0.0,0.0,0.0
1664627864455,-1.0058594,0.11328125,-0.06347656,3.78125,0.0625,0.0625,0.0,0.0,0.0
1664627864606,-0.9951172,0.11035156,-0.076171875,2.71875,-0.25,0.0,-125.25,-1.625,-134.4375
1664627864613,-0.9941406,0.125,-0.06347656,2.1875,0.40625,-0.0625,0.0,0.0,0.0
1664627864615,-1.0068359,0.095703125,-0.056640625,0.28125,0.21875,0.5,0.0,0.0,0.0
