# Sensor type: Thingy
# Activity type: Climbing stairs
# Activity code: 12
# Subject id: s1918275
# Notes: 
timestamp,accel_x,accel_y,accel_z,gyro_x,gyro_y,gyro_z,mag_x,mag_y,mag_z
1664629222018,-1.1308594,0.00390625,-0.072265625,-9.375,-17.15625,-7.28125,0.0,0.0,0.0
1664629222043,-1.4707031,0.24707031,-0.08203125,-35.8125,-18.25,-26.03125,0.0,0.0,0.0
1664629222077,-1.8671875,-0.15625,-0.03515625,15.03125,-78.4375,-10.53125,0.0,0.0,0.0
1664629222164,-1.2841797,0.36035156,0.3076172,8.75,-85.9375,-54.71875,0.0,0.0,0.0
1664629222169,-1.0566406,0.37890625,0.15429688,-59.28125,-109.4375,-63.5,0.0,0.0,0.0
1664629222194,-1.0195312,0.02734375,0.11425781,-243.5,-45.78125,-72.96875,0.0,0.0,0.0
1664629222256,-1.0966797,0.032226562,-0.23730469,-116.5625,-16.90625,-83.75,0.0,0.0,0.0
1664629222284,-1.1689453,-0.11425781,0.2607422,-1.5,-29.46875,-89.5,0.0,0.0,0.0
1664629222314,-1.4853516,-0.4638672,0.6015625,0.09375,-73.4375,-136.0,0.0,0.0,0.0
1664629222374,-0.7861328,0.25,0.043945312,20.96875,-71.53125,-148.09375,0.0,0.0,0.0
1664629222403,-0.63183594,-0.25878906,0.11621094,68.6875,-79.84375,-111.0,0.0,0.0,0.0
1664629222432,-0.8876953,-0.4326172,0.24414062,129.375,-83.125,-109.09375,0.0,0.0,0.0
1664629222527,-0.28027344,-0.19140625,0.14550781,121.1875,-72.6875,-74.1875,-109.0625,1.8125,-151.875
1664629222536,-0.07421875,-0.005859375,0.3408203,94.34375,-12.4375,-11.25,0.0,0.0,0.0
1664629222555,-0.34765625,-0.18261719,0.4892578,41.15625,63.90625,75.21875,0.0,0.0,0.0
1664629222615,-0.7324219,-0.41601562,2.0185547,-99.9375,93.1875,150.78125,0.0,0.0,0.0
1664629222645,-1.9863281,0.64941406,1.0673828,-180.9375,97.65625,47.34375,0.0,0.0,0.0
1664629222674,-0.36816406,-0.2861328,0.4501953,-78.15625,190.0,36.53125,0.0,0.0,0.0
1664629222735,-0.9501953,-0.013671875,-0.14160156,-43.0625,65.96875,119.59375,0.0,0.0,0.0
1664629222770,-1.28125,-0.10644531,-0.022460938,4.0,40.34375,87.75,0.0,0.0,0.0
1664629222794,-0.78808594,-0.048828125,-9.765625E-4,-22.75,76.125,87.625,0.0,0.0,0.0
1664629222854,-0.76660156,-0.08984375,-0.072265625,13.34375,58.28125,79.5625,0.0,0.0,0.0
1664629222883,-0.80566406,-0.044921875,0.14257812,81.625,14.03125,64.4375,0.0,0.0,0.0
1664629222918,-0.9238281,0.072265625,0.051757812,87.25,-11.09375,44.71875,0.0,0.0,0.0
1664629222975,-0.92285156,0.18457031,0.095703125,58.0,0.78125,33.96875,-104.25,17.0,-180.9375
1664629223007,-0.9160156,-0.01953125,0.040039062,-1.5625,19.21875,25.96875,0.0,0.0,0.0
1664629223034,-1.0917969,-0.10644531,-0.0390625,1.96875,27.34375,15.53125,0.0,0.0,0.0
1664629223093,-1.4277344,0.051757812,0.033203125,33.53125,36.8125,23.0,0.0,0.0,0.0
1664629223122,-1.5097656,0.18847656,0.18847656,58.4375,35.15625,38.5625,0.0,0.0,0.0
1664629223160,-1.4150391,-0.0087890625,-0.234375,23.21875,-52.5,0.71875,0.0,0.0,0.0
1664629223213,-1.4199219,0.49804688,0.25585938,55.625,-66.03125,-32.0,0.0,0.0,0.0
1664629223244,-0.9921875,0.26464844,0.21582031,-104.21875,-70.625,-63.875,0.0,0.0,0.0
1664629223272,-0.82421875,-0.14648438,-0.1015625,-241.25,-40.40625,-109.71875,0.0,0.0,0.0
1664629223335,-1.171875,0.017578125,-0.171875,-60.03125,28.75,-131.125,0.0,0.0,0.0
1664629223365,-1.1318359,-0.013671875,0.66308594,95.3125,-32.90625,-120.1875,0.0,0.0,0.0
1664629223393,-0.7519531,0.3486328,0.125,81.03125,-129.15625,-128.625,0.0,0.0,0.0
1664629223453,-0.6816406,-0.05078125,-0.2109375,38.96875,-98.21875,-120.03125,0.0,0.0,0.0
1664629223483,-0.55078125,0.018554688,0.22558594,69.625,-99.53125,-108.71875,-120.125,-6.125,-162.5
1664629223514,-0.6455078,-0.16210938,0.203125,44.65625,-69.03125,-75.53125,0.0,0.0,0.0
1664629223573,-0.5830078,-0.25195312,0.21777344,11.0625,-7.9375,-19.25,0.0,0.0,0.0
1664629223608,-0.07421875,0.19628906,0.5576172,41.21875,16.59375,48.5,0.0,0.0,0.0
1664629223632,-0.6171875,0.13867188,0.73535156,-55.75,126.40625,137.90625,0.0,0.0,0.0
1664629223695,-1.9863281,-0.4658203,0.28320312,-39.9375,207.03125,108.125,0.0,0.0,0.0
1664629223726,-0.22265625,0.13574219,0.068359375,41.71875,9.34375,37.03125,0.0,0.0,0.0
1664629223754,-0.45410156,0.3828125,0.00390625,-95.375,110.21875,107.9375,0.0,0.0,0.0
1664629223813,-1.8095703,-0.20019531,-0.059570312,-5.9375,53.96875,129.3125,0.0,0.0,0.0
1664629223844,-0.93847656,-0.171875,-0.07421875,22.0,40.03125,81.28125,0.0,0.0,0.0
1664629223872,-0.5957031,0.06640625,0.025390625,20.96875,37.28125,55.65625,0.0,0.0,0.0
1664629223935,-0.83984375,0.049804688,0.0078125,38.71875,30.03125,75.71875,0.0,0.0,0.0
1664629223963,-0.8808594,0.036132812,-0.0546875,56.5,12.09375,44.53125,-122.6875,12.625,-175.375
1664629223992,-0.7607422,0.20214844,-0.0068359375,26.21875,-3.1875,25.84375,0.0,0.0,0.0
1664629224053,-0.98046875,-0.1015625,-0.17578125,11.0625,8.3125,26.21875,0.0,0.0,0.0
1664629224082,-1.0634766,0.33203125,0.17382812,5.59375,37.34375,-4.28125,0.0,0.0,0.0
1664629224113,-1.4179688,0.0107421875,0.15234375,-40.625,25.21875,30.1875,0.0,0.0,0.0
1664629224143,-1.4599609,0.09667969,0.119140625,4.25,25.75,26.28125,0.0,0.0,0.0
1664629224209,-1.5380859,0.0390625,0.08300781,-3.6875,-15.5,37.40625,0.0,0.0,0.0
1664629224232,-1.1787109,0.14941406,0.16308594,1.96875,-46.09375,-18.21875,0.0,0.0,0.0
1664629224261,-1.1181641,0.26953125,0.21386719,-3.625,-54.1875,-47.03125,0.0,0.0,0.0
1664629224326,-1.0058594,-0.07421875,-0.057617188,-173.25,-39.0,-95.40625,0.0,0.0,0.0
1664629224353,-1.1162109,0.1796875,-0.14160156,-111.96875,25.8125,-129.0,0.0,0.0,0.0
1664629224382,-1.0498047,0.07324219,0.21289062,19.4375,-1.875,-113.71875,0.0,0.0,0.0
1664629224444,-0.8359375,0.45410156,0.18066406,80.40625,-93.375,-135.34375,0.0,0.0,0.0
1664629224477,-0.7392578,0.040039062,0.11425781,47.28125,-89.78125,-135.40625,-123.3125,5.0,-165.1875
1664629224503,-0.6455078,-0.02734375,-0.20996094,78.65625,-77.8125,-125.4375,0.0,0.0,0.0
1664629224562,-0.7050781,-0.29101562,0.29296875,50.625,-57.1875,-110.625,0.0,0.0,0.0
1664629224593,-0.5810547,-0.26660156,0.2890625,88.65625,-53.21875,-34.8125,0.0,0.0,0.0
1664629224626,-0.43847656,0.034179688,0.018554688,41.28125,1.40625,66.25,0.0,0.0,0.0
1664629224683,-0.43066406,0.49414062,0.5107422,-54.84375,153.03125,186.3125,0.0,0.0,0.0
1664629224713,-1.9863281,-0.18261719,0.890625,4.0,205.9375,116.125,0.0,0.0,0.0
1664629224742,-0.4560547,-0.14746094,0.055664062,-7.0625,88.125,9.5625,0.0,0.0,0.0
1664629224803,-0.5830078,0.26953125,-0.17285156,-89.875,97.78125,92.3125,0.0,0.0,0.0
1664629224831,-1.6132812,-0.25683594,-0.037109375,-1.9375,66.78125,93.375,0.0,0.0,0.0
1664629224862,-0.93359375,0.024414062,-0.12402344,5.46875,-1.28125,66.4375,0.0,0.0,0.0
1664629224923,-0.6796875,0.15136719,0.00390625,22.375,30.09375,59.90625,0.0,0.0,0.0
1664629224968,-0.7890625,0.043945312,-0.08984375,29.5,21.375,64.90625,-120.4375,15.625,-171.0625
1664629224984,-0.9658203,0.09863281,-0.017578125,30.1875,1.40625,46.65625,0.0,0.0,0.0
1664629225044,-0.8671875,0.07519531,-0.036132812,27.875,0.125,36.15625,0.0,0.0,0.0
1664629225074,-0.84765625,0.087890625,0.09277344,5.78125,3.3125,16.09375,0.0,0.0,0.0
1664629225103,-1.1181641,-0.072265625,-0.030273438,14.5625,-9.59375,16.875,0.0,0.0,0.0
1664629225164,-1.3828125,-0.07910156,0.08691406,1.6875,36.1875,10.78125,0.0,0.0,0.0
1664629225194,-1.390625,0.14550781,0.14550781,39.9375,5.1875,6.75,0.0,0.0,0.0
1664629225222,-1.5478516,0.0859375,0.068359375,-8.34375,-40.40625,5.28125,0.0,0.0,0.0
1664629225284,-1.2392578,0.20703125,0.1640625,-1.4375,-85.09375,-32.5,0.0,0.0,0.0
1664629225314,-1.1347656,0.36132812,0.23242188,-52.875,-46.09375,-42.5625,0.0,0.0,0.0
1664629225343,-1.0029297,-0.40234375,-0.13964844,-187.96875,-55.90625,-92.6875,0.0,0.0,0.0
1664629225409,-1.3125,0.013671875,-0.34277344,-100.625,31.125,-116.1875,0.0,0.0,0.0
1664629225433,-1.1142578,0.18652344,0.58496094,100.1875,28.5625,-131.125,0.0,0.0,0.0
1664629225496,-0.5576172,0.6152344,0.40234375,78.40625,-114.4375,-132.59375,-116.375,8.75,-165.375
1664629225524,-0.6738281,0.07519531,-0.06738281,8.9375,-53.84375,-118.1875,0.0,0.0,0.0
1664629225553,-0.9716797,-0.38867188,0.18945312,74.25,-87.03125,-98.90625,0.0,0.0,0.0
1664629225582,-0.7607422,-0.057617188,0.091796875,94.9375,-69.75,-49.34375,0.0,0.0,0.0
1664629225643,-0.47070312,0.091796875,-0.12695312,30.375,14.65625,42.15625,0.0,0.0,0.0
1664629225672,-0.0146484375,0.36132812,0.3251953,-38.0625,177.8125,158.4375,0.0,0.0,0.0
1664629225707,-1.9863281,-0.0029296875,0.047851562,-4.125,161.4375,177.15625,0.0,0.0,0.0
1664629225764,-0.8330078,-0.078125,0.017578125,-33.84375,69.9375,23.15625,0.0,0.0,0.0
1664629225796,-0.44921875,0.23535156,-0.17578125,-73.15625,74.71875,95.1875,0.0,0.0,0.0
1664629225823,-1.4970703,0.068359375,-0.34277344,12.25,41.375,114.71875,0.0,0.0,0.0
1664629225882,-0.96777344,-0.15722656,-0.013671875,35.0625,-8.375,63.40625,0.0,0.0,0.0
1664629225912,-0.5107422,-0.024414062,-0.091796875,12.84375,40.28125,46.125,0.0,0.0,0.0
1664629225975,-0.73339844,0.13574219,-0.043945312,34.40625,-3.0625,38.78125,-114.625,16.25,-168.1875
1664629226006,-0.8173828,0.087890625,0.030273438,61.0,-11.0,29.9375,0.0,0.0,0.0
1664629226038,-1.0644531,0.03515625,0.16015625,23.46875,-14.03125,12.0,0.0,0.0,0.0
1664629226063,-1.3564453,-0.16210938,-0.13183594,20.96875,-2.75,3.5625,0.0,0.0,0.0
1664629226126,-1.4394531,0.06347656,0.0048828125,-16.625,29.125,-3.0,0.0,0.0,0.0
1664629226152,-1.2910156,0.20117188,0.17578125,46.90625,27.53125,8.8125,0.0,0.0,0.0
1664629226184,-1.2617188,0.25,0.10253906,-34.625,-14.21875,-8.9375,0.0,0.0,0.0
1664629226242,-1.2382812,0.4951172,0.22558594,-52.28125,-33.625,-34.3125,0.0,0.0,0.0
1664629226273,-1.0390625,0.015625,0.049804688,-42.375,-59.8125,-44.6875,0.0,0.0,0.0
1664629226333,-1.1796875,-0.08496094,-0.18359375,-109.96875,-34.84375,-82.1875,0.0,0.0,0.0
1664629226363,-1.1552734,0.009765625,0.19433594,-45.375,44.3125,-123.625,0.0,0.0,0.0
1664629226394,-0.8183594,0.62890625,0.14355469,108.0625,-121.15625,-138.28125,0.0,0.0,0.0
1664629226423,-0.69433594,0.09375,0.1015625,-22.0,-56.625,-127.78125,0.0,0.0,0.0
1664629226485,-0.84375,-0.48632812,-0.31640625,-9.96875,-36.9375,-136.6875,-116.5625,3.9375,-158.4375
1664629226513,-0.87597656,0.06933594,0.43847656,90.4375,-104.6875,-103.96875,0.0,0.0,0.0
1664629226544,-0.609375,0.024414062,0.06347656,75.59375,-57.75,-24.375,0.0,0.0,0.0
1664629226604,-0.5234375,0.024414062,0.13769531,26.09375,-5.75,49.65625,0.0,0.0,0.0
1664629226635,-0.12207031,0.171875,0.3876953,-33.65625,138.6875,153.125,0.0,0.0,0.0
1664629226663,-1.9863281,0.0703125,1.0664062,-55.4375,160.15625,154.28125,0.0,0.0,0.0
1664629226724,-0.66308594,0.016601562,0.15429688,13.03125,66.65625,34.8125,0.0,0.0,0.0
1664629226757,-0.6611328,0.2607422,-0.1171875,-48.125,76.59375,115.75,0.0,0.0,0.0
1664629226784,-1.5791016,-0.17871094,-0.29492188,54.96875,36.6875,139.0,0.0,0.0,0.0
1664629226844,-0.8466797,-0.11621094,-0.080078125,69.1875,6.15625,60.15625,0.0,0.0,0.0
1664629226877,-0.46875,0.1328125,-0.06347656,62.15625,4.75,33.1875,0.0,0.0,0.0
1664629226903,-0.74609375,0.19042969,-0.049804688,56.625,11.40625,39.78125,0.0,0.0,0.0
1664629226963,-0.7050781,0.12597656,0.044921875,16.625,16.71875,27.0625,-112.625,19.5625,-170.75
1664629226996,-0.9736328,0.09277344,0.024414062,9.1875,-6.96875,17.5625,0.0,0.0,0.0
1664629227023,-1.2382812,-0.12207031,0.0625,33.65625,6.09375,14.25,0.0,0.0,0.0
1664629227083,-1.2841797,0.08886719,0.00390625,1.0,23.5,1.5625,0.0,0.0,0.0
1664629227114,-1.3408203,0.4560547,0.038085938,-1.125,58.03125,6.6875,0.0,0.0,0.0
1664629227143,-1.6298828,0.48535156,0.19824219,-13.46875,15.375,52.15625,0.0,0.0,0.0
1664629227202,-1.2646484,-0.07910156,-0.1484375,-37.125,-29.0625,27.75,0.0,0.0,0.0
1664629227232,-1.1767578,-0.02734375,0.02734375,52.875,-48.875,-9.125,0.0,0.0,0.0
1664629227262,-0.9404297,0.048828125,0.07128906,-16.75,-77.09375,-61.125,0.0,0.0,0.0
1664629227323,-1.0195312,0.41308594,0.13867188,-103.90625,-59.4375,-138.75,0.0,0.0,0.0
1664629227356,-0.6464844,0.5107422,-0.359375,-96.21875,-1.34375,-87.78125,0.0,0.0,0.0
1664629227389,-1.1191406,-0.061523438,0.32226562,-51.84375,-5.90625,-124.0,0.0,0.0,0.0
1664629227443,-0.9628906,-0.033203125,0.017578125,81.4375,-114.75,-134.59375,0.0,0.0,0.0
1664629227477,-0.9326172,0.068359375,0.07910156,76.75,-120.53125,-158.84375,-115.0625,6.3125,-161.4375
1664629227503,-0.57128906,0.08105469,0.10644531,85.78125,-110.21875,-117.875,0.0,0.0,0.0
1664629227565,-0.6777344,-0.009765625,0.34375,61.5,-71.15625,-67.90625,0.0,0.0,0.0
1664629227594,-0.69628906,-0.024414062,0.27148438,23.90625,-5.84375,5.34375,0.0,0.0,0.0
1664629227623,-0.23339844,0.09277344,0.06933594,-58.875,89.0625,87.125,0.0,0.0,0.0
1664629227684,-0.7373047,-0.3779297,1.0185547,-121.375,193.3125,184.0,0.0,0.0,0.0
1664629227714,-1.9863281,-0.19921875,0.65234375,6.6875,177.625,158.59375,0.0,0.0,0.0
1664629227744,-0.18652344,0.07714844,-0.0234375,-14.75,68.1875,3.875,0.0,0.0,0.0
1664629227802,-0.38378906,0.43945312,-0.16796875,-69.78125,77.03125,99.78125,0.0,0.0,0.0
1664629227835,-1.6455078,-0.072265625,-0.119140625,-13.875,87.40625,112.09375,0.0,0.0,0.0
1664629227863,-0.9404297,-0.14550781,-0.08984375,34.5625,-7.4375,70.03125,0.0,0.0,0.0
1664629227923,-0.82128906,0.017578125,-0.041992188,75.65625,10.9375,59.65625,0.0,0.0,0.0
1664629227954,-0.73828125,0.21582031,-0.041015625,76.6875,-11.78125,36.84375,-113.5625,20.4375,-171.9375
1664629227985,-0.7988281,0.15722656,-0.026367188,64.1875,-24.21875,38.25,0.0,0.0,0.0
1664629228051,-0.76953125,0.0390625,0.0048828125,40.9375,-6.65625,17.25,0.0,0.0,0.0
1664629228074,-1.0361328,0.109375,-0.016601562,-10.03125,24.0625,14.25,0.0,0.0,0.0
1664629228103,-1.0791016,0.19238281,0.10644531,-11.625,53.46875,6.09375,0.0,0.0,0.0
1664629228164,-1.8017578,-0.0546875,-0.095703125,-8.09375,41.1875,31.15625,0.0,0.0,0.0
1664629228197,-1.3740234,0.19433594,0.26367188,44.65625,23.125,30.4375,0.0,0.0,0.0
1664629228223,-1.4042969,0.08105469,0.044921875,4.4375,-44.96875,35.125,0.0,0.0,0.0
1664629228286,-1.1572266,-0.111328125,-0.171875,45.6875,-150.875,-6.4375,0.0,0.0,0.0
1664629228315,-1.3046875,0.57714844,0.453125,-3.09375,-52.4375,-49.8125,0.0,0.0,0.0
1664629228344,-0.9042969,0.060546875,-0.26367188,-90.78125,-141.71875,-71.5625,0.0,0.0,0.0
1664629228405,-0.67285156,0.39746094,-0.68359375,38.46875,-57.875,-89.3125,0.0,0.0,0.0
1664629228434,-1.3398438,-0.77441406,1.1044922,-185.03125,107.53125,-81.5625,0.0,0.0,0.0
1664629228465,-0.74316406,0.48535156,-0.42871094,77.1875,-119.6875,-104.5,-112.1875,15.625,-164.875
1664629228523,-0.9902344,-0.16503906,0.3232422,-35.8125,-1.59375,-135.8125,0.0,0.0,0.0
1664629228556,-0.64160156,-0.12011719,-0.041992188,96.65625,-73.96875,-113.0625,0.0,0.0,0.0
1664629228614,-0.53808594,-0.11230469,-0.18457031,164.40625,-71.40625,-63.4375,0.0,0.0,0.0
1664629228644,-0.3046875,0.13183594,-0.052734375,120.03125,-17.9375,-22.0625,0.0,0.0,0.0
1664629228675,-0.26171875,0.20214844,0.19140625,130.875,47.90625,37.03125,0.0,0.0,0.0
1664629228703,-1.0673828,-0.08496094,0.46972656,150.96875,152.59375,154.15625,0.0,0.0,0.0
1664629228763,-1.3291016,-0.3828125,0.83984375,185.28125,-46.3125,115.6875,0.0,0.0,0.0
1664629228797,-0.83203125,0.0546875,-0.3310547,-90.25,52.0625,-73.5,0.0,0.0,0.0
1664629228823,-1.5664062,1.1455078,0.13085938,-78.9375,-57.3125,12.71875,0.0,0.0,0.0
1664629228883,-0.7626953,-0.51464844,-0.7246094,152.25,-47.25,22.3125,0.0,0.0,0.0
1664629228916,-1.1269531,-0.5517578,-0.25878906,286.65625,-56.8125,21.34375,0.0,0.0,0.0
1664629228945,-1.1416016,0.20507812,-0.056640625,167.5625,20.75,-65.40625,-115.625,7.6875,-161.3125
1664629229003,-0.9580078,0.8183594,-0.11230469,33.59375,63.59375,-47.5625,0.0,0.0,0.0
1664629229035,-0.6777344,0.74316406,0.13085938,102.6875,9.03125,27.5625,0.0,0.0,0.0
1664629229063,-0.9140625,0.0,-0.09375,87.96875,17.53125,59.0,0.0,0.0,0.0
1664629229124,-0.84472656,0.111328125,0.01171875,66.25,62.5625,37.6875,0.0,0.0,0.0
1664629229157,-1.0195312,-0.032226562,-0.0107421875,63.09375,51.09375,33.53125,0.0,0.0,0.0
1664629229185,-0.9824219,-0.16113281,-0.038085938,73.34375,43.59375,44.09375,0.0,0.0,0.0
1664629229243,-1.2060547,-0.27246094,0.21972656,114.84375,12.4375,50.34375,0.0,0.0,0.0
1664629229273,-1.359375,-0.041015625,0.25976562,125.09375,-47.90625,5.28125,0.0,0.0,0.0
1664629229308,-1.3271484,-0.15820312,-0.10058594,91.8125,-135.4375,-23.15625,0.0,0.0,0.0
1664629229363,-1.5898438,-0.11621094,0.08300781,4.53125,-239.3125,-97.1875,0.0,0.0,0.0
1664629229394,-1.4003906,0.28125,-0.16601562,109.46875,-259.28125,-168.3125,0.0,0.0,0.0
1664629229425,-1.5996094,0.18359375,-1.0585938,75.59375,-149.28125,-158.59375,0.0,0.0,0.0
1664629229484,-1.609375,-1.1533203,0.75390625,-123.9375,31.75,-222.625,-109.5,-8.375,-149.0
1664629229515,-1.3261719,-0.057617188,-0.0546875,208.40625,-92.59375,-259.78125,0.0,0.0,0.0
1664629229546,-1.1113281,0.20117188,-0.119140625,290.1875,-95.625,-222.5,0.0,0.0,0.0
1664629229603,-0.60253906,0.12109375,0.047851562,239.71875,-117.625,-167.875,0.0,0.0,0.0
1664629229633,-0.4189453,0.30078125,0.23535156,137.1875,-36.875,-142.84375,0.0,0.0,0.0
1664629229663,-0.3564453,0.09863281,0.28222656,133.75,-3.84375,-93.53125,0.0,0.0,0.0
1664629229727,-0.4482422,-0.16796875,0.4921875,141.375,49.3125,-42.75,0.0,0.0,0.0
1664629229754,-0.40039062,-0.44433594,0.5830078,51.46875,130.3125,11.5625,0.0,0.0,0.0
1664629229789,-0.90625,-0.56347656,0.025390625,-58.4375,177.96875,45.5,0.0,0.0,0.0
1664629229843,-1.9863281,1.0429688,1.4179688,31.03125,75.75,18.90625,0.0,0.0,0.0
1664629229873,0.021484375,0.13378906,0.040039062,-54.65625,216.1875,43.1875,0.0,0.0,0.0
1664629229904,-1.6777344,0.15429688,-0.3671875,-37.375,105.53125,131.09375,0.0,0.0,0.0
1664629229969,-1.2216797,-0.045898438,0.0859375,50.75,51.8125,71.21875,-103.1875,-11.9375,-140.0
1664629229995,-0.6621094,0.2685547,0.020507812,-41.96875,96.375,88.90625,0.0,0.0,0.0
1664629230024,-0.9394531,-0.068359375,-0.06347656,-49.34375,99.84375,90.625,0.0,0.0,0.0
1664629230085,-0.9794922,-0.30566406,-0.0126953125,49.28125,31.9375,93.84375,0.0,0.0,0.0
1664629230114,-0.7363281,0.061523438,-0.041992188,92.5625,5.125,13.78125,0.0,0.0,0.0
1664629230144,-0.95703125,0.2861328,0.043945312,58.5625,12.4375,16.46875,0.0,0.0,0.0
1664629230203,-1.3056641,-0.0703125,0.10253906,-13.34375,22.875,23.96875,0.0,0.0,0.0
1664629230236,-1.0556641,0.049804688,0.038085938,24.3125,37.90625,12.5,0.0,0.0,0.0
1664629230263,-1.4814453,0.3125,0.13183594,43.1875,49.1875,23.59375,0.0,0.0,0.0
1664629230323,-1.4814453,0.14160156,0.22265625,25.125,9.21875,18.84375,0.0,0.0,0.0
1664629230354,-1.3535156,-0.049804688,-0.036132812,7.96875,-119.6875,-43.90625,0.0,0.0,0.0
1664629230384,-1.1113281,0.38867188,0.33203125,38.0,-80.625,-43.0625,0.0,0.0,0.0
1664629230446,-1.0087891,-0.1953125,-0.23046875,-185.28125,-74.46875,-81.75,0.0,0.0,0.0
1664629230476,-1.2128906,-0.14355469,-0.50390625,-109.03125,27.96875,-121.0,-108.75,-1.4375,-142.25
1664629230505,-1.1904297,0.07714844,0.49121094,81.4375,55.78125,-139.3125,0.0,0.0,0.0
1664629230566,-1.0732422,0.5488281,0.6875,90.3125,-121.8125,-142.28125,0.0,0.0,0.0
1664629230607,-0.64941406,0.26464844,-0.34960938,-11.4375,-62.875,-112.5625,0.0,0.0,0.0
1664629230623,-0.6923828,-0.234375,0.15429688,58.1875,-79.40625,-108.65625,0.0,0.0,0.0
1664629230684,-0.82910156,-0.19921875,0.1640625,71.875,-97.96875,-79.375,0.0,0.0,0.0
1664629230716,-0.41210938,0.08984375,0.19238281,86.625,-78.78125,-41.71875,0.0,0.0,0.0
1664629230744,-0.37402344,-0.0146484375,0.3486328,45.75,-7.5,32.03125,0.0,0.0,0.0
1664629230806,-0.4482422,-0.1875,-0.017578125,-38.4375,124.625,134.625,0.0,0.0,0.0
1664629230836,-1.9863281,-0.6972656,-0.7373047,-60.28125,155.09375,135.53125,0.0,0.0,0.0
1664629230894,-1.15625,-0.01953125,0.27734375,31.46875,54.09375,10.96875,0.0,0.0,0.0
1664629230930,0.025390625,0.20117188,0.07324219,-33.40625,69.8125,54.96875,0.0,0.0,0.0
1664629230953,-1.2988281,0.020507812,-0.26367188,-61.3125,63.40625,135.46875,-109.375,-4.625,-140.125
1664629230982,-1.2363281,-0.23632812,-0.08886719,-9.1875,38.875,66.25,0.0,0.0,0.0
1664629231043,-0.84375,0.028320312,-0.029296875,30.59375,19.28125,50.15625,0.0,0.0,0.0
1664629231073,-0.8417969,0.1171875,-0.028320312,17.5,16.78125,40.875,0.0,0.0,0.0
1664629231106,-0.984375,0.16503906,0.030273438,41.03125,10.0625,62.15625,0.0,0.0,0.0
1664629231163,-0.90527344,0.13769531,-0.01171875,0.21875,2.1875,36.59375,0.0,0.0,0.0
1664629231194,-0.9707031,0.030273438,-0.034179688,4.4375,3.0625,36.78125,0.0,0.0,0.0
1664629231223,-0.80566406,0.059570312,-0.043945312,3.375,17.75,31.65625,0.0,0.0,0.0
1664629231284,-0.90722656,0.02734375,-0.009765625,-7.34375,10.25,20.1875,0.0,0.0,0.0
1664629231315,-1.1025391,-0.12109375,-0.07324219,-19.5,17.875,21.09375,0.0,0.0,0.0
1664629231344,-1.4052734,-0.11328125,0.051757812,21.625,42.25,18.09375,0.0,0.0,0.0
1664629231407,-1.4560547,0.20703125,0.15332031,46.71875,21.375,22.3125,0.0,0.0,0.0
1664629231436,-1.6386719,0.19140625,0.034179688,-9.125,-18.4375,28.25,0.0,0.0,0.0
1664629231468,-1.2929688,0.23046875,0.1328125,24.125,-66.40625,-20.78125,-112.0625,9.8125,-147.5
1664629231524,-0.9941406,0.22167969,0.28222656,10.71875,-95.03125,-61.0,0.0,0.0,0.0
1664629231555,-1.0742188,-0.08203125,0.044921875,-143.59375,-69.59375,-104.03125,0.0,0.0,0.0
1664629231585,-1.3740234,0.1328125,-0.26464844,-93.53125,25.75,-147.25,0.0,0.0,0.0
1664629231645,-1.1337891,0.20507812,0.34179688,1.1875,34.1875,-133.5625,0.0,0.0,0.0
1664629231675,-0.7470703,0.19335938,0.038085938,95.0625,-80.875,-127.15625,0.0,0.0,0.0
1664629231702,-0.8378906,-0.020507812,-0.08984375,45.0625,-54.5625,-135.71875,0.0,0.0,0.0
1664629231761,-0.6230469,0.22949219,0.25878906,120.5625,-112.125,-142.46875,0.0,0.0,0.0
1664629231792,-0.5527344,-0.08300781,0.20898438,43.4375,-59.75,-46.90625,0.0,0.0,0.0
1664629231822,-0.578125,-0.14160156,-0.009765625,89.1875,-27.9375,23.40625,0.0,0.0,0.0
1664629231882,-0.10644531,0.13085938,0.0,15.59375,84.53125,112.59375,0.0,0.0,0.0
1664629231915,-1.4091797,-1.6826172,-1.1152344,-108.5,134.53125,101.84375,0.0,0.0,0.0
1664629231949,-1.8105469,0.41503906,-0.19433594,23.40625,16.96875,41.65625,-106.9375,-5.375,-140.625
1664629232004,-0.19628906,0.4345703,0.07519531,-35.5625,78.8125,50.15625,0.0,0.0,0.0
1664629232034,-0.9941406,0.19824219,-0.40625,-46.1875,52.84375,108.8125,0.0,0.0,0.0
1664629232062,-1.7734375,-0.3828125,0.16992188,37.9375,46.8125,125.21875,0.0,0.0,0.0
1664629232123,-0.671875,0.11621094,-0.109375,25.65625,31.5625,54.84375,0.0,0.0,0.0
1664629232154,-0.59277344,-0.021484375,-0.041992188,26.6875,38.34375,73.59375,0.0,0.0,0.0
1664629232185,-0.8652344,-0.061523438,0.0029296875,21.5,22.59375,49.53125,0.0,0.0,0.0
1664629232245,-0.88183594,0.103515625,0.08691406,89.75,-11.71875,33.65625,0.0,0.0,0.0
1664629232272,-0.9794922,0.24023438,0.030273438,51.59375,-24.90625,15.1875,0.0,0.0,0.0
1664629232303,-1.1943359,0.06933594,0.029296875,-33.0625,22.59375,1.125,0.0,0.0,0.0
1664629232362,-1.3779297,0.072265625,-0.00390625,-7.53125,28.5,11.21875,0.0,0.0,0.0
1664629232392,-1.4609375,0.31445312,0.3095703,10.03125,6.90625,31.03125,0.0,0.0,0.0
1664629232423,-1.4208984,-0.17675781,-0.1875,-23.59375,-73.0625,8.71875,0.0,0.0,0.0
1664629232489,-1.3144531,0.42773438,0.11425781,-20.84375,-53.65625,-55.0625,-116.375,8.0,-145.875
1664629232513,-1.2236328,0.40722656,0.49121094,-103.96875,-41.625,-61.25,0.0,0.0,0.0
1664629232547,-0.9472656,-0.25585938,-0.28808594,-206.09375,-57.5625,-93.71875,0.0,0.0,0.0
1664629232602,-0.9638672,0.103515625,-0.10644531,-16.375,27.53125,-118.4375,0.0,0.0,0.0
1664629232632,-0.7392578,0.640625,0.27148438,90.4375,-89.53125,-122.28125,0.0,0.0,0.0
1664629232664,-0.7714844,0.115234375,0.15332031,3.03125,-68.25,-139.125,0.0,0.0,0.0
1664629232723,-0.76464844,-0.2841797,-0.29589844,72.125,-91.625,-131.1875,0.0,0.0,0.0
1664629232755,-0.6035156,0.037109375,0.23828125,67.34375,-95.46875,-102.25,0.0,0.0,0.0
1664629232784,-0.5576172,-0.0703125,0.091796875,63.1875,-28.4375,-54.15625,0.0,0.0,0.0
1664629232843,-0.4814453,-0.028320312,0.038085938,25.1875,56.875,44.15625,0.0,0.0,0.0
1664629232873,-0.3779297,0.19042969,0.18457031,-58.3125,186.9375,162.5625,0.0,0.0,0.0
1664629232903,-1.9863281,-0.4453125,0.33984375,-34.15625,213.625,132.125,0.0,0.0,0.0
1664629232966,-0.4482422,-0.13476562,0.06738281,25.46875,11.65625,14.3125,-115.5,-3.25,-138.1875
1664629232998,-0.11816406,0.42871094,-0.020507812,-68.09375,68.71875,95.625,0.0,0.0,0.0
1664629233023,-1.53125,-0.0107421875,-0.4111328,-13.53125,53.34375,120.15625,0.0,0.0,0.0
1664629233086,-1.1474609,-0.22558594,-0.1015625,7.0,15.75,75.28125,0.0,0.0,0.0
1664629233118,-0.6064453,-0.041992188,-0.16015625,34.75,21.71875,51.3125,0.0,0.0,0.0
1664629233183,-0.85546875,0.06640625,0.03125,67.71875,32.09375,37.4375,0.0,0.0,0.0
1664629233208,-0.7841797,0.27734375,9.765625E-4,34.21875,-1.28125,24.03125,0.0,0.0,0.0
1664629233233,-0.7949219,0.40234375,0.12695312,14.25,-18.96875,35.875,0.0,0.0,0.0
1664629233264,-1.2177734,-0.24121094,-0.10546875,-48.90625,17.59375,28.78125,0.0,0.0,0.0
1664629233322,-1.4208984,-0.2919922,-0.00390625,8.75,13.90625,23.28125,0.0,0.0,0.0
1664629233352,-1.2861328,-0.0126953125,0.057617188,50.75,17.28125,31.59375,0.0,0.0,0.0
1664629233385,-1.4658203,0.17285156,0.13671875,51.53125,-2.875,24.5625,0.0,0.0,0.0
1664629233446,-1.4111328,0.4091797,0.034179688,23.59375,-72.4375,-34.15625,0.0,0.0,0.0
1664629233475,-1.1660156,0.6328125,0.3095703,-20.59375,-53.84375,-37.3125,-114.75,16.6875,-142.5625
1664629233504,-1.0878906,-0.068359375,-0.107421875,-83.15625,-93.375,-62.03125,0.0,0.0,0.0
1664629233564,-1.2832031,-0.22070312,-0.328125,-165.8125,17.15625,-111.71875,0.0,0.0,0.0
1664629233593,-0.9658203,0.5185547,0.12109375,-52.21875,101.875,-114.15625,0.0,0.0,0.0
1664629233622,-0.7128906,0.41015625,0.46289062,105.5,-106.5,-109.15625,0.0,0.0,0.0
1664629233683,-0.60058594,0.25585938,-0.20117188,-30.3125,-54.0,-108.84375,0.0,0.0,0.0
1664629233714,-1.0341797,-0.38378906,0.0703125,9.4375,-52.5,-106.21875,0.0,0.0,0.0
1664629233745,-0.7910156,-0.09082031,0.02734375,80.15625,-102.90625,-81.25,0.0,0.0,0.0
1664629233803,-0.5800781,-0.12011719,-0.13574219,112.8125,-63.09375,-6.0625,0.0,0.0,0.0
1664629233833,-0.16601562,0.35546875,0.07519531,25.65625,66.40625,63.09375,0.0,0.0,0.0
1664629233863,-0.6152344,-0.1796875,0.2578125,-57.78125,83.375,131.625,0.0,0.0,0.0
1664629233925,-1.9863281,0.28222656,0.046875,-119.53125,154.78125,104.71875,0.0,0.0,0.0
1664629233953,-0.4716797,-0.14648438,0.026367188,-47.53125,58.09375,59.4375,-108.75,7.5625,-139.125
1664629233982,-0.89453125,0.21191406,-0.16015625,-34.5625,27.46875,97.75,0.0,0.0,0.0
1664629234044,-1.3076172,-0.013671875,-0.15136719,38.0625,8.0,91.28125,0.0,0.0,0.0
1664629234073,-0.8359375,0.099609375,-0.11328125,40.875,-4.34375,55.875,0.0,0.0,0.0
1664629234103,-0.6699219,-0.056640625,-0.11816406,23.84375,8.4375,46.96875,0.0,0.0,0.0
1664629234166,-0.8496094,-0.10253906,-0.08691406,55.8125,-3.46875,38.5,0.0,0.0,0.0
1664629234193,-0.9511719,0.07519531,-0.029296875,31.28125,-8.0625,9.125,0.0,0.0,0.0
1664629234224,-1.0322266,0.19921875,-0.04296875,9.5625,-9.875,2.34375,0.0,0.0,0.0
1664629234285,-1.2050781,0.05859375,0.051757812,11.1875,35.875,18.90625,0.0,0.0,0.0
1664629234315,-1.4169922,0.15625,0.045898438,35.96875,15.1875,10.34375,0.0,0.0,0.0
1664629234347,-1.2373047,0.484375,0.3046875,18.84375,-13.4375,5.53125,0.0,0.0,0.0
1664629234405,-1.4355469,0.21484375,0.26464844,-64.78125,-58.40625,-13.375,0.0,0.0,0.0
1664629234435,-1.1025391,0.10839844,-0.064453125,-45.375,-115.96875,-35.1875,0.0,0.0,0.0
1664629234464,-1.2314453,0.11230469,-0.0068359375,-78.8125,-61.34375,-64.59375,-100.8125,17.125,-138.8125
1664629234524,-1.2695312,0.04296875,0.024414062,-228.71875,85.75,-108.84375,0.0,0.0,0.0
1664629234559,-1.0888672,0.32714844,0.2685547,49.40625,-24.0,-138.625,0.0,0.0,0.0
1664629234583,-0.69628906,0.4091797,0.23632812,11.1875,-52.71875,-114.53125,0.0,0.0,0.0
1664629234734,-0.85058594,-0.034179688,0.14746094,25.3125,-76.65625,-107.4375,0.0,0.0,0.0
1664629234738,-0.7910156,-0.080078125,0.109375,42.6875,-95.09375,-128.0,0.0,0.0,0.0
1664629234741,-0.50097656,-0.055664062,0.16699219,75.21875,-90.6875,-78.46875,0.0,0.0,0.0
1664629234767,-0.578125,-0.16699219,0.1171875,86.53125,-72.8125,-11.3125,0.0,0.0,0.0
1664629234794,-0.49023438,-0.061523438,0.2421875,15.03125,13.78125,45.15625,0.0,0.0,0.0
1664629234824,-0.16601562,0.25195312,0.27929688,-53.875,132.8125,142.5,0.0,0.0,0.0
1664629234918,-1.9863281,0.09375,-0.5078125,-55.625,217.03125,144.03125,0.0,0.0,0.0
1664629234921,-0.79589844,-0.2265625,-0.052734375,26.28125,44.875,13.21875,0.0,0.0,0.0
1664629234944,-0.21875,0.2705078,9.765625E-4,-34.09375,61.15625,74.375,-100.9375,6.1875,-142.125
1664629235007,-1.3759766,0.2998047,-0.22363281,-18.9375,65.125,107.28125,0.0,0.0,0.0
1664629235034,-1.1904297,-0.115234375,-0.091796875,18.78125,7.875,83.71875,0.0,0.0,0.0
1664629235063,-0.7011719,-0.0068359375,-0.045898438,-7.71875,23.1875,60.71875,0.0,0.0,0.0
1664629235123,-0.8105469,0.09375,-0.068359375,47.8125,3.25,49.40625,0.0,0.0,0.0
1664629235155,-0.765625,0.11816406,0.01171875,26.34375,-1.46875,42.40625,0.0,0.0,0.0
1664629235185,-0.96484375,-0.11816406,0.09375,25.25,-19.03125,43.9375,0.0,0.0,0.0
1664629235243,-0.85839844,-0.24316406,-0.11621094,77.375,-20.1875,17.90625,0.0,0.0,0.0
1664629235275,-1.1054688,0.3408203,0.048828125,12.53125,34.3125,-6.90625,0.0,0.0,0.0
1664629235307,-1.4550781,0.3310547,0.07519531,18.21875,33.625,30.6875,0.0,0.0,0.0
1664629235365,-1.4130859,-0.20703125,0.17773438,13.6875,18.3125,51.125,0.0,0.0,0.0
1664629235393,-1.5126953,0.00390625,0.025390625,26.28125,-4.6875,18.90625,0.0,0.0,0.0
1664629235454,-1.4003906,0.14746094,0.03515625,54.15625,-64.625,-13.5,0.0,0.0,0.0
1664629235484,-1.1523438,0.48632812,0.4560547,78.53125,-64.03125,-26.75,-101.375,19.0625,-149.3125
1664629235515,-1.1552734,-0.14257812,-0.23046875,-40.5625,-141.46875,-89.0625,0.0,0.0,0.0
1664629235546,-1.1416016,0.40039062,-0.26953125,-115.5,-47.1875,-147.78125,0.0,0.0,0.0
1664629235605,-0.9658203,0.5517578,0.16113281,-88.28125,37.71875,-115.9375,0.0,0.0,0.0
1664629235637,-0.88378906,0.20019531,0.13671875,41.96875,-80.5,-118.3125,0.0,0.0,0.0
1664629235666,-0.93652344,-0.3466797,0.034179688,31.15625,-86.125,-125.5,0.0,0.0,0.0
1664629235724,-0.8935547,-0.14257812,-0.091796875,98.28125,-106.03125,-168.1875,0.0,0.0,0.0
1664629235752,-0.5839844,0.23535156,0.140625,122.53125,-126.9375,-153.09375,0.0,0.0,0.0
1664629235783,-0.57128906,0.025390625,0.16015625,111.59375,-102.40625,-98.78125,0.0,0.0,0.0
1664629235845,-0.53027344,-0.1171875,0.34570312,99.15625,-75.5,-63.4375,0.0,0.0,0.0
1664629235873,-0.5097656,-0.21289062,0.45703125,83.78125,-20.625,3.8125,0.0,0.0,0.0
1664629235904,-0.25878906,-0.5449219,0.49023438,49.90625,52.5,71.03125,0.0,0.0,0.0
1664629235963,-1.9179688,-1.1357422,2.0185547,-165.0,111.6875,60.34375,-96.625,1.0625,-123.0625
1664629235995,-0.91308594,0.043945312,-0.60546875,-0.09375,39.375,88.65625,0.0,0.0,0.0
1664629236023,-0.6074219,-0.1796875,0.21582031,-139.25,204.71875,109.28125,0.0,0.0,0.0
1664629236084,-1.5605469,-0.33007812,0.036132812,-44.90625,104.90625,107.59375,0.0,0.0,0.0
1664629236115,-1.1240234,-0.38867188,-9.765625E-4,-5.71875,94.1875,76.34375,0.0,0.0,0.0
1664629236146,-0.91503906,0.25585938,-0.064453125,18.84375,58.53125,74.8125,0.0,0.0,0.0
1664629236204,-0.7998047,0.18652344,-0.03125,14.875,47.5,117.90625,0.0,0.0,0.0
1664629236237,-0.6044922,0.25,-0.0126953125,21.40625,31.9375,120.46875,0.0,0.0,0.0
1664629236270,-1.0097656,-0.25878906,-0.030273438,91.8125,-6.84375,103.5625,0.0,0.0,0.0
1664629236325,-0.875,0.07128906,-0.087890625,105.8125,31.375,48.125,0.0,0.0,0.0
1664629236354,-0.7890625,0.25195312,0.021484375,74.96875,32.40625,33.65625,0.0,0.0,0.0
1664629236385,-0.80566406,0.2421875,0.015625,55.03125,50.59375,59.65625,0.0,0.0,0.0
1664629236415,-0.90234375,0.03515625,0.072265625,46.65625,48.53125,70.21875,0.0,0.0,0.0
1664629236476,-1.4423828,-0.3388672,0.033203125,59.34375,0.90625,49.90625,-112.1875,28.0625,-143.625
1664629236506,-1.2158203,-0.25878906,-0.11816406,68.75,-52.78125,15.28125,0.0,0.0,0.0
1664629236534,-1.5888672,-0.14941406,-0.4140625,170.125,-131.03125,-64.53125,0.0,0.0,0.0
1664629236593,-1.4550781,0.3330078,0.33203125,40.125,-254.75,-81.5,0.0,0.0,0.0
1664629236623,-1.2714844,0.34570312,-0.5,163.78125,-297.1875,-101.03125,0.0,0.0,0.0
1664629236654,-1.4960938,0.6328125,-0.60839844,-35.0,-158.375,-139.78125,0.0,0.0,0.0
1664629236714,-1.1982422,-0.22460938,-0.0048828125,-34.5625,-34.1875,-110.75,0.0,0.0,0.0
1664629236743,-1.234375,-0.32617188,0.17578125,-13.75,23.5,-165.125,0.0,0.0,0.0
1664629236775,-0.99316406,-0.09277344,-0.25097656,201.875,-32.34375,-155.59375,0.0,0.0,0.0
1664629236834,-0.6035156,0.32910156,-0.16210938,202.78125,7.25,-124.46875,0.0,0.0,0.0
1664629236865,-0.5029297,0.17871094,-0.18164062,181.125,39.625,-69.90625,0.0,0.0,0.0
1664629236895,-0.6855469,0.30371094,-0.009765625,180.625,40.53125,-28.59375,0.0,0.0,0.0
1664629236954,-0.74609375,0.30566406,0.19433594,136.375,68.84375,20.84375,-110.6875,18.625,-127.25
1664629236986,-0.73339844,0.24316406,0.19628906,83.40625,137.5,80.90625,0.0,0.0,0.0
1664629237019,-1.9863281,-0.21875,1.1005859,101.78125,61.9375,129.90625,0.0,0.0,0.0
1664629237073,-1.1816406,-0.41992188,-0.32226562,-4.125,-33.5,-45.96875,0.0,0.0,0.0
1664629237104,-0.033203125,0.055664062,-0.39257812,-92.375,92.84375,-69.84375,0.0,0.0,0.0
1664629237134,-1.8095703,0.15917969,0.484375,-53.9375,140.75,77.125,0.0,0.0,0.0
1664629237193,-1.3583984,-0.20019531,-0.7910156,223.0,-129.9375,56.1875,0.0,0.0,0.0
1664629237223,-0.44628906,-0.005859375,-0.29492188,182.28125,-36.5625,24.9375,0.0,0.0,0.0
1664629237252,-1.1113281,0.4814453,-0.35546875,173.5,-11.96875,5.96875,0.0,0.0,0.0
1664629237314,-0.9160156,0.56933594,0.01171875,107.8125,16.90625,16.6875,0.0,0.0,0.0
1664629237343,-0.85546875,0.123046875,-0.07421875,121.625,16.84375,21.8125,0.0,0.0,0.0
1664629237374,-1.1103516,0.24902344,0.04296875,99.46875,18.25,8.28125,0.0,0.0,0.0
1664629237435,-0.9550781,0.030273438,0.11035156,83.28125,19.28125,13.15625,0.0,0.0,0.0
1664629237467,-0.79003906,0.068359375,-0.24707031,47.15625,24.125,1.0625,-111.75,34.375,-155.125
1664629237494,-0.8808594,0.50878906,-0.00390625,16.03125,40.28125,7.59375,0.0,0.0,0.0
1664629237559,-1.2529297,-0.022460938,0.0068359375,12.125,16.71875,36.96875,0.0,0.0,0.0
1664629237585,-1.5537109,-0.11035156,0.12109375,57.59375,39.375,35.8125,0.0,0.0,0.0
1664629237614,-1.5732422,0.1875,0.053710938,29.5,12.15625,6.3125,0.0,0.0,0.0
1664629237673,-1.4423828,0.046875,0.14746094,59.78125,-75.625,-35.5,0.0,0.0,0.0
1664629237735,-1.2587891,0.1484375,-0.0048828125,60.34375,-129.875,-52.03125,0.0,0.0,0.0
1664629237738,-1.3535156,0.33007812,-0.20410156,-25.53125,-123.78125,-58.375,0.0,0.0,0.0
1664629237794,-1.2324219,0.3154297,-0.2734375,-62.84375,-27.53125,-114.09375,0.0,0.0,0.0
1664629237824,-1.1542969,0.0703125,-0.06542969,12.84375,37.21875,-141.125,0.0,0.0,0.0
1664629237852,-1.0966797,-0.14550781,0.022460938,20.96875,-6.96875,-124.96875,0.0,0.0,0.0
1664629237915,-1.1054688,0.09082031,0.19335938,105.1875,-74.8125,-186.0625,0.0,0.0,0.0
1664629237944,-0.5234375,0.14550781,-0.1328125,184.71875,-117.0625,-182.59375,-123.625,14.3125,-153.1875
1664629237975,-0.25,0.0146484375,0.13867188,141.625,-98.875,-108.125,0.0,0.0,0.0
1664629238033,-0.5097656,-0.19921875,0.0390625,125.40625,-74.21875,-40.25,0.0,0.0,0.0
1664629238065,-0.45507812,-0.1015625,0.22949219,58.75,21.0625,41.96875,0.0,0.0,0.0
1664629238095,-0.52734375,-0.04296875,0.045898438,-78.15625,204.53125,77.1875,0.0,0.0,0.0
1664629238152,-1.9863281,0.35546875,0.5722656,-8.75,126.46875,88.28125,0.0,0.0,0.0
1664629238185,-0.97265625,-0.057617188,0.4609375,-14.8125,106.6875,44.71875,0.0,0.0,0.0
1664629238214,-0.6386719,0.24316406,-0.036132812,-38.3125,85.21875,96.53125,0.0,0.0,0.0
1664629238276,-1.4208984,0.234375,-0.31152344,-14.3125,55.1875,131.9375,0.0,0.0,0.0
1664629238309,-1.0117188,-0.20996094,-0.07421875,45.625,14.34375,97.625,0.0,0.0,0.0
1664629238337,-0.7529297,-0.0390625,-0.0068359375,78.03125,4.15625,70.59375,0.0,0.0,0.0
1664629238393,-0.74316406,0.19335938,-0.032226562,58.875,5.75,38.625,0.0,0.0,0.0
1664629238423,-0.765625,0.32226562,-0.0087890625,3.875,19.90625,23.53125,0.0,0.0,0.0
1664629238482,-0.9628906,0.001953125,0.15527344,16.15625,-5.125,35.5,-125.125,23.125,-173.4375
1664629238517,-1.2949219,-0.40429688,-0.022460938,-5.71875,49.1875,33.5,0.0,0.0,0.0
1664629238547,-1.4990234,-0.047851562,0.07421875,69.90625,30.75,16.875,0.0,0.0,0.0
1664629238575,-1.3027344,0.33007812,0.21386719,70.46875,17.15625,15.96875,0.0,0.0,0.0
1664629238634,-1.3173828,0.26660156,0.068359375,9.6875,-37.59375,3.8125,0.0,0.0,0.0
1664629238666,-1.3261719,0.3642578,-0.033203125,2.34375,-96.0625,-30.25,0.0,0.0,0.0
1664629238694,-1.1201172,0.34960938,0.07128906,-53.5625,-34.375,-39.5,0.0,0.0,0.0
1664629238755,-1.0478516,-0.30273438,-0.47070312,-194.6875,-9.65625,-117.75,0.0,0.0,0.0
1664629238783,-1.3017578,-0.103515625,-0.08984375,-128.875,124.15625,-118.5625,0.0,0.0,0.0
1664629238816,-0.9921875,0.07519531,0.48339844,217.4375,-102.53125,-121.59375,0.0,0.0,0.0
1664629238873,-0.5283203,0.6435547,0.13671875,0.625,-107.0,-112.6875,0.0,0.0,0.0
1664629238905,-0.7236328,-0.040039062,-0.33496094,26.53125,-72.9375,-84.875,0.0,0.0,0.0
1664629238963,-0.91308594,-0.38183594,0.23730469,62.53125,-96.96875,-97.75,-124.0625,3.9375,-154.5625
1664629238997,-0.4169922,0.203125,-0.13085938,54.09375,-39.25,-54.90625,0.0,0.0,0.0
1664629239026,-0.6660156,-0.055664062,-0.026367188,5.84375,60.4375,43.0625,0.0,0.0,0.0
1664629239054,-0.67089844,-0.037109375,0.21191406,-31.21875,132.4375,147.8125,0.0,0.0,0.0
1664629239117,-1.7597656,0.32910156,-0.28808594,-24.9375,118.40625,129.625,0.0,0.0,0.0
1664629239156,-1.0029297,0.045898438,-0.08105469,-52.65625,73.25,42.09375,0.0,0.0,0.0
1664629239180,-0.82421875,0.032226562,-0.16894531,-72.40625,60.625,101.65625,0.0,0.0,0.0
1664629239233,-1.4697266,-0.052734375,-0.26953125,34.875,24.125,102.46875,0.0,0.0,0.0
1664629239265,-0.95996094,0.030273438,-0.078125,47.34375,-25.28125,49.46875,0.0,0.0,0.0
1664629239295,-0.5986328,0.12988281,-0.01953125,26.09375,6.46875,33.65625,0.0,0.0,0.0
1664629239354,-0.68847656,0.11816406,-0.08496094,52.75,-10.0,42.03125,0.0,0.0,0.0
1664629239383,-0.9404297,-0.00390625,-0.015625,53.0625,-3.28125,38.3125,0.0,0.0,0.0
1664629239414,-0.8105469,0.018554688,-0.032226562,34.15625,-6.84375,18.40625,0.0,0.0,0.0
1664629239475,-0.8964844,0.0068359375,-0.07714844,24.25,8.84375,11.8125,-119.875,23.3125,-164.4375
1664629239505,-1.0683594,0.05078125,0.026367188,23.09375,26.84375,10.78125,0.0,0.0,0.0
1664629239534,-1.3916016,-0.0625,-0.107421875,13.21875,26.78125,16.59375,0.0,0.0,0.0
1664629239595,-1.4755859,0.26464844,0.1640625,36.65625,26.5625,22.875,0.0,0.0,0.0
1664629239622,-1.4794922,0.0068359375,0.0029296875,13.6875,-32.65625,3.09375,0.0,0.0,0.0
1664629239656,-1.2832031,0.3984375,0.14257812,41.15625,-64.5625,-30.34375,0.0,0.0,0.0
1664629239714,-1.0546875,0.51660156,0.3359375,-37.5,-45.21875,-30.90625,0.0,0.0,0.0
1664629239744,-1.0732422,-0.0234375,0.0078125,-132.0,-56.75,-62.21875,0.0,0.0,0.0
1664629239778,-1.3212891,0.0390625,-0.171875,-99.9375,-37.84375,-121.53125,0.0,0.0,0.0
1664629239835,-1.0361328,0.42089844,-0.20703125,-54.53125,29.84375,-99.875,0.0,0.0,0.0
1664629239865,-0.8486328,0.13378906,0.78027344,53.5,-40.34375,-117.28125,0.0,0.0,0.0
1664629239895,-0.5595703,0.41992188,-0.13574219,13.40625,-100.78125,-124.03125,0.0,0.0,0.0
1664629239957,-0.8623047,-0.20996094,-0.057617188,41.0,-76.78125,-99.8125,-117.875,5.75,-154.25
1664629240016,-0.9033203,-0.19042969,0.15332031,80.34375,-91.4375,-89.125,0.0,0.0,0.0
1664629240019,-0.5830078,-0.06738281,0.08691406,47.75,-31.3125,-22.65625,0.0,0.0,0.0
1664629240073,-0.21484375,0.125,0.12695312,28.46875,33.5625,55.8125,0.0,0.0,0.0
1664629240103,-0.45703125,0.23144531,0.74902344,-90.25,96.5,172.03125,0.0,0.0,0.0
1664629240139,-1.9863281,0.20507812,0.6796875,-78.71875,252.8125,155.4375,0.0,0.0,0.0
1664629240196,-0.94628906,-0.4736328,-0.0126953125,-20.96875,89.0625,21.8125,0.0,0.0,0.0
1664629240223,-0.5078125,0.21582031,-0.20800781,-41.46875,50.84375,84.21875,0.0,0.0,0.0
1664629240254,-1.4267578,0.19726562,-0.21679688,-10.90625,67.75,114.0,0.0,0.0,0.0
1664629240313,-0.88964844,-0.11816406,-0.06738281,20.96875,0.375,67.1875,0.0,0.0,0.0
1664629240345,-0.5517578,-0.016601562,-0.04296875,36.15625,11.96875,46.84375,0.0,0.0,0.0
1664629240374,-0.8388672,0.15820312,-0.0625,47.6875,-15.1875,40.8125,0.0,0.0,0.0
1664629240434,-0.86621094,0.15625,0.057617188,46.40625,-11.40625,26.03125,0.0,0.0,0.0
1664629240464,-0.8300781,-0.01953125,-0.0390625,22.3125,-6.40625,15.46875,-112.8125,23.3125,-164.75
1664629240494,-1.0859375,0.08886719,0.026367188,36.15625,0.5,9.25,0.0,0.0,0.0
1664629240554,-1.3320312,0.13964844,-0.044921875,7.59375,23.1875,16.28125,0.0,0.0,0.0
1664629240585,-1.4970703,0.24902344,0.13867188,15.03125,43.75,19.3125,0.0,0.0,0.0
1664629240616,-1.6054688,0.017578125,0.2109375,13.09375,12.09375,28.0625,0.0,0.0,0.0
1664629240674,-1.3652344,0.19726562,-0.057617188,-3.625,-65.0,-20.65625,0.0,0.0,0.0
1664629240704,-1.1240234,0.5839844,0.2607422,3.9375,-68.34375,-45.6875,0.0,0.0,0.0
1664629240767,-0.9824219,0.0234375,0.032226562,-141.21875,-77.625,-81.5625,0.0,0.0,0.0
1664629240796,-1.078125,0.09375,-0.2939453,-129.25,-0.5,-101.9375,0.0,0.0,0.0
1664629240825,-1.0976562,0.016601562,0.05859375,-33.71875,-2.3125,-121.78125,0.0,0.0,0.0
1664629240855,-0.76464844,0.48828125,0.6904297,30.4375,-63.46875,-144.75,0.0,0.0,0.0
1664629240914,-0.859375,-0.13085938,-0.38964844,69.0,-120.71875,-126.90625,0.0,0.0,0.0
1664629240942,-0.7109375,-0.08886719,0.22070312,33.34375,-96.375,-136.0625,-117.4375,7.25,-153.0625
1664629240975,-0.48632812,0.060546875,0.14746094,79.625,-104.5625,-85.40625,0.0,0.0,0.0
1664629241034,-0.7832031,-0.23144531,0.17871094,14.0,-30.875,-31.8125,0.0,0.0,0.0
1664629241066,-0.4580078,-0.017578125,0.39746094,5.84375,29.1875,24.5625,0.0,0.0,0.0
1664629241094,-0.22753906,0.36035156,0.5488281,-54.15625,108.34375,138.78125,0.0,0.0,0.0
1664629241154,-1.9863281,-0.50683594,0.17285156,-38.125,212.59375,161.34375,0.0,0.0,0.0
1664629241183,-0.8388672,0.001953125,0.13085938,10.96875,37.40625,12.3125,0.0,0.0,0.0
1664629241212,-0.07519531,0.55371094,-0.032226562,-50.25,78.1875,80.78125,0.0,0.0,0.0
1664629241274,-1.7753906,0.12207031,-0.39648438,-66.5625,70.9375,161.71875,0.0,0.0,0.0
1664629241307,-1.2685547,-0.3564453,-0.053710938,-3.15625,12.5625,87.625,0.0,0.0,0.0
1664629241333,-0.625,0.020507812,-0.068359375,9.90625,41.1875,49.0625,0.0,0.0,0.0
1664629241394,-0.64453125,0.064453125,0.0029296875,64.3125,4.09375,53.9375,0.0,0.0,0.0
1664629241427,-0.90625,0.16699219,-0.0107421875,10.65625,-10.0,35.125,0.0,0.0,0.0
1664629241455,-0.8798828,0.009765625,0.048828125,18.9375,-24.28125,27.25,-114.875,23.0,-162.625
1664629241517,-0.97558594,-0.18066406,9.765625E-4,10.28125,-3.34375,12.25,0.0,0.0,0.0
1664629241547,-1.3320312,-0.05078125,0.06542969,45.1875,24.40625,10.21875,0.0,0.0,0.0
1664629241576,-1.2802734,0.013671875,0.16796875,29.3125,16.25,17.875,0.0,0.0,0.0
1664629241633,-1.4707031,0.07421875,0.3544922,61.5625,21.59375,9.75,0.0,0.0,0.0
1664629241666,-1.578125,0.16992188,-0.0078125,28.03125,-69.9375,-21.375,0.0,0.0,0.0
1664629241696,-1.0625,0.60058594,0.33203125,24.625,-104.90625,-55.03125,0.0,0.0,0.0
1664629241755,-1.0771484,0.31054688,0.11425781,-81.09375,-76.53125,-73.21875,0.0,0.0,0.0
1664629241783,-0.984375,-0.059570312,-0.6015625,-158.71875,-38.6875,-85.59375,0.0,0.0,0.0
1664629241815,-1.0019531,-0.06347656,0.09863281,-42.5,42.96875,-102.6875,0.0,0.0,0.0
1664629241873,-1.0507812,0.32226562,0.47070312,100.875,-78.125,-127.03125,0.0,0.0,0.0
1664629241903,-0.7089844,0.29101562,0.0146484375,-28.09375,-64.375,-130.625,0.0,0.0,0.0
1664629241935,-0.8251953,-0.22363281,-0.0546875,27.375,-49.0,-122.40625,-119.5625,5.5625,-150.375
1664629241994,-0.7685547,-0.025390625,0.34570312,98.28125,-109.625,-102.0,0.0,0.0,0.0
1664629242027,-0.5644531,-0.061523438,0.21289062,63.75,-64.6875,-49.65625,0.0,0.0,0.0
1664629242057,-0.57714844,-0.11816406,0.31445312,44.90625,-21.375,21.21875,0.0,0.0,0.0
1664629242115,-0.43945312,-0.203125,0.19726562,-32.375,61.71875,78.96875,0.0,0.0,0.0
1664629242144,-1.3623047,-1.015625,0.24902344,-153.40625,91.6875,131.09375,0.0,0.0,0.0
1664629242175,-1.9863281,0.10644531,0.083984375,-34.21875,75.3125,72.375,0.0,0.0,0.0
1664629242234,-0.23828125,0.0107421875,0.3779297,-46.0625,103.40625,49.0625,0.0,0.0,0.0
1664629242303,-1.0751953,0.27734375,-0.23339844,-84.875,101.3125,137.6875,0.0,0.0,0.0
1664629242309,-1.7255859,-0.2939453,-0.030273438,-7.28125,71.40625,123.8125,0.0,0.0,0.0
1664629242354,-0.7060547,-0.038085938,-0.056640625,52.40625,21.71875,70.84375,0.0,0.0,0.0
1664629242383,-0.47753906,0.06738281,-0.083984375,43.65625,18.3125,57.09375,0.0,0.0,0.0
1664629242414,-0.70214844,0.11328125,0.11621094,84.625,2.1875,60.21875,0.0,0.0,0.0
1664629242478,-0.9667969,-0.016601562,0.026367188,37.5,1.28125,30.6875,-117.4375,23.0,-159.9375
1664629242504,-0.97753906,0.0087890625,0.0234375,9.0,14.21875,8.875,0.0,0.0,0.0
1664629242536,-0.9970703,0.12792969,0.068359375,8.75,13.25,10.0,0.0,0.0,0.0
1664629242593,-1.1435547,0.09375,0.06933594,31.71875,1.53125,15.1875,0.0,0.0,0.0
1664629242623,-1.3779297,0.12402344,9.765625E-4,11.625,11.15625,15.46875,0.0,0.0,0.0
1664629242655,-1.5273438,0.09277344,0.1875,13.21875,8.25,25.0625,0.0,0.0,0.0
1664629242714,-1.5039062,0.23535156,-0.060546875,-15.15625,-49.25,-4.46875,0.0,0.0,0.0
1664629242744,-1.1601562,0.40234375,0.27539062,26.34375,-39.125,-22.375,0.0,0.0,0.0
1664629242772,-0.9921875,0.047851562,0.25,-60.9375,-54.25,-45.96875,0.0,0.0,0.0
1664629242833,-1.2304688,0.06738281,-0.05078125,-182.46875,-10.875,-109.53125,0.0,0.0,0.0
1664629242864,-1.0175781,0.24609375,-0.26171875,-60.46875,21.5,-107.625,0.0,0.0,0.0
1664629242894,-0.9951172,0.0029296875,0.62890625,23.46875,21.78125,-106.90625,0.0,0.0,0.0
1664629242953,-0.8310547,0.42871094,0.047851562,86.28125,-115.28125,-144.625,-117.625,15.625,-154.25
1664629242982,-0.85058594,0.046875,0.21875,-18.65625,-61.53125,-136.9375,0.0,0.0,0.0
1664629243045,-0.59765625,-0.034179688,0.030273438,66.125,-94.3125,-114.84375,0.0,0.0,0.0
1664629243076,-0.85546875,-0.22167969,0.24902344,52.71875,-67.125,-62.34375,0.0,0.0,0.0
1664629243104,-0.68066406,-0.22363281,0.17871094,83.34375,-59.75,-7.34375,0.0,0.0,0.0
1664629243135,-0.32714844,0.11621094,0.234375,19.125,37.65625,65.78125,0.0,0.0,0.0
1664629243197,-0.69921875,-0.51464844,1.1582031,-96.90625,119.4375,160.875,0.0,0.0,0.0
1664629243225,-1.9863281,0.40429688,0.36132812,-75.28125,140.75,114.65625,0.0,0.0,0.0
1664629243256,-0.4033203,-0.0068359375,0.22167969,-18.21875,83.75,40.8125,0.0,0.0,0.0
1664629243313,-0.8544922,0.24414062,-0.27734375,-58.875,67.75,130.09375,0.0,0.0,0.0
1664629243344,-1.4003906,-0.0703125,-0.07519531,20.28125,39.5,111.0625,0.0,0.0,0.0
1664629243372,-0.70214844,-0.12792969,0.016601562,97.0625,-12.625,91.21875,0.0,0.0,0.0
1664629243450,-0.60253906,-0.024414062,9.765625E-4,74.125,5.125,50.15625,0.0,0.0,0.0
1664629243464,-0.9296875,0.059570312,-0.06640625,82.5625,0.1875,29.03125,-111.0,26.875,-160.25
1664629243493,-0.75097656,0.20019531,0.07128906,48.0,4.15625,24.21875,0.0,0.0,0.0
1664629243555,-0.80371094,0.10839844,0.0546875,22.25,13.0625,12.5,0.0,0.0,0.0
1664629243583,-1.15625,-0.11425781,-0.018554688,24.4375,19.34375,6.5625,0.0,0.0,0.0
1664629243613,-1.2890625,0.17382812,0.036132812,40.75,24.59375,12.125,0.0,0.0,0.0
1664629243673,-1.4179688,0.11816406,0.25976562,45.375,35.53125,30.1875,0.0,0.0,0.0
1664629243705,-1.6357422,0.10449219,0.20898438,40.875,26.5625,34.53125,0.0,0.0,0.0
1664629243734,-1.2861328,0.25195312,0.08691406,6.25,-47.65625,-26.8125,0.0,0.0,0.0
1664629243794,-1.3798828,0.5810547,0.53808594,7.28125,-35.59375,-2.9375,0.0,0.0,0.0
1664629243823,-1.0039062,-0.38476562,-0.21386719,-24.875,-175.96875,-24.25,0.0,0.0,0.0
1664629243853,-1.0566406,-0.29882812,-0.64160156,115.375,-124.9375,-91.15625,0.0,0.0,0.0
1664629243913,-1.0253906,0.6074219,-0.44433594,35.1875,-72.8125,-93.21875,0.0,0.0,0.0
1664629243946,-0.8310547,0.7392578,1.2236328,-285.5,31.1875,-111.78125,-112.375,19.375,-157.875
1664629243976,-0.61035156,-0.057617188,-0.5673828,-12.0,-19.40625,-88.15625,0.0,0.0,0.0
1664629244036,-1.0166016,-0.23046875,0.22070312,-21.8125,-43.5625,-111.90625,0.0,0.0,0.0
1664629244064,-0.6230469,0.038085938,-0.107421875,108.5,-67.8125,-94.6875,0.0,0.0,0.0
1664629244093,-0.6689453,-0.17675781,0.017578125,98.96875,-36.6875,-80.46875,0.0,0.0,0.0
1664629244153,-0.6347656,0.068359375,-0.005859375,122.53125,-17.625,-35.25,0.0,0.0,0.0
1664629244188,-0.265625,0.13867188,0.06738281,130.84375,19.90625,4.90625,0.0,0.0,0.0
1664629244216,-0.45703125,0.026367188,0.25195312,120.8125,127.9375,87.0625,0.0,0.0,0.0
1664629244275,-1.5820312,0.053710938,0.60253906,165.8125,55.71875,153.78125,0.0,0.0,0.0
1664629244304,-1.9863281,0.2705078,0.67285156,104.71875,-51.5,-67.21875,0.0,0.0,0.0
1664629244334,-1.3632812,0.8623047,0.27441406,-119.65625,90.625,12.625,0.0,0.0,0.0
1664629244396,-1.0654297,-0.61035156,-0.7060547,-28.40625,-87.09375,67.78125,0.0,0.0,0.0
1664629244423,-0.64746094,-0.40429688,-0.35546875,239.46875,-50.84375,17.375,0.0,0.0,0.0
1664629244453,-1.1367188,0.16894531,-0.24902344,185.46875,-2.9375,-26.4375,-111.3125,8.4375,-157.875
1664629244514,-0.953125,0.78027344,0.055664062,29.15625,23.4375,-19.4375,0.0,0.0,0.0
1664629244575,-0.9394531,0.36132812,0.13671875,74.375,29.0625,27.5,0.0,0.0,0.0
1664629244580,-0.91015625,-0.14160156,-0.06542969,82.96875,11.65625,29.34375,0.0,0.0,0.0
1664629244633,-0.8535156,0.08691406,-0.028320312,55.4375,66.21875,7.125,0.0,0.0,0.0
1664629244664,-0.89941406,0.33691406,0.078125,48.4375,80.8125,14.75,0.0,0.0,0.0
1664629244693,-0.97558594,0.099609375,0.01171875,47.15625,46.09375,41.125,0.0,0.0,0.0
1664629244754,-0.96875,-0.0390625,-0.020507812,48.625,23.25,46.96875,0.0,0.0,0.0
1664629244784,-0.9296875,0.0546875,0.0048828125,76.875,27.40625,44.90625,0.0,0.0,0.0
1664629244820,-1.1992188,0.09375,0.2607422,75.46875,7.3125,32.625,0.0,0.0,0.0
1664629244876,-1.2900391,-0.20898438,-0.056640625,40.3125,-53.09375,1.625,0.0,0.0,0.0
1664629244903,-1.4921875,-0.29101562,-0.07714844,88.96875,-82.46875,-24.5,0.0,0.0,0.0
1664629244935,-1.4628906,-0.14941406,0.3515625,11.6875,-175.53125,-90.59375,-112.9375,9.1875,-164.125
1664629244994,-1.3027344,0.083984375,-0.13183594,127.03125,-267.46875,-124.53125,0.0,0.0,0.0
1664629245026,-1.7304688,-0.22949219,-0.8125,193.6875,-204.34375,-139.5,0.0,0.0,0.0
1664629245054,-1.3662109,0.080078125,-0.4765625,-42.75,-20.4375,-143.28125,0.0,0.0,0.0
1664629245113,-1.7353516,-0.18554688,0.7685547,-75.53125,130.96875,-281.40625,0.0,0.0,0.0
1664629245143,-0.9169922,0.15820312,-0.083984375,190.28125,-92.15625,-212.96875,0.0,0.0,0.0
1664629245175,-1.1298828,-0.16113281,-0.040039062,259.625,-123.53125,-173.4375,0.0,0.0,0.0
1664629245235,-0.7519531,0.11230469,-0.061523438,226.09375,-128.53125,-139.5,0.0,0.0,0.0
1664629245263,-0.22753906,0.48828125,0.2685547,147.4375,-49.625,-115.125,0.0,0.0,0.0
1664629245325,-0.11035156,-0.16015625,0.5107422,111.65625,34.25,-61.59375,0.0,0.0,0.0
1664629245358,-0.55078125,-0.6435547,0.57910156,117.59375,84.0,18.15625,0.0,0.0,0.0
1664629245386,-0.6035156,0.06933594,0.5498047,-22.4375,123.40625,31.46875,0.0,0.0,0.0
1664629245413,-1.9863281,0.6230469,0.3876953,-45.875,143.6875,30.0625,0.0,0.0,0.0
1664629245471,-0.109375,0.19824219,-0.001953125,37.6875,111.625,7.71875,-105.625,-6.5625,-132.8125
1664629245503,-0.78125,0.2548828,-0.08300781,-60.09375,128.1875,111.5625,0.0,0.0,0.0
1664629245531,-1.7304688,-0.18261719,-0.07519531,-30.71875,112.125,97.6875,0.0,0.0,0.0
1664629245591,-0.90722656,-0.20507812,0.033203125,39.75,57.0,92.09375,0.0,0.0,0.0
1664629245623,-0.67871094,0.15039062,0.00390625,77.46875,65.84375,57.46875,0.0,0.0,0.0
1664629245653,-0.80078125,0.08496094,0.099609375,85.53125,45.40625,63.625,0.0,0.0,0.0
1664629245712,-0.8408203,0.16210938,0.07128906,79.6875,22.15625,24.9375,0.0,0.0,0.0
1664629245742,-0.6689453,0.31347656,0.1015625,53.25,16.59375,13.84375,0.0,0.0,0.0
1664629245771,-1.453125,0.032226562,0.087890625,5.78125,41.625,9.5625,0.0,0.0,0.0
1664629245834,-1.4140625,-0.12597656,0.1015625,34.21875,45.46875,27.3125,0.0,0.0,0.0
1664629245863,-1.2890625,-0.072265625,0.17285156,60.40625,30.46875,26.65625,0.0,0.0,0.0
1664629245895,-1.453125,0.095703125,0.13183594,26.875,-7.8125,1.8125,0.0,0.0,0.0
1664629245955,-1.1914062,0.25878906,0.26171875,-11.09375,-65.90625,-61.71875,0.0,0.0,0.0
1664629245986,-1.2900391,0.49121094,0.0390625,-48.375,-49.875,-66.96875,-117.3125,9.1875,-148.125
1664629246014,-1.109375,0.12695312,-0.18847656,-180.09375,-35.71875,-75.84375,0.0,0.0,0.0
1664629246073,-1.2333984,-0.040039062,-0.0087890625,-80.21875,27.96875,-120.9375,0.0,0.0,0.0
1664629246103,-0.96875,0.111328125,0.10644531,104.65625,-24.96875,-113.3125,0.0,0.0,0.0
1664629246137,-0.7001953,0.265625,0.35253906,66.9375,-105.03125,-117.40625,0.0,0.0,0.0
1664629246195,-0.59375,0.103515625,-0.13476562,54.40625,-80.4375,-105.8125,0.0,0.0,0.0
1664629246226,-0.68847656,-0.12402344,0.08203125,78.28125,-70.96875,-94.03125,0.0,0.0,0.0
1664629246254,-0.5605469,0.0,0.18066406,80.09375,-61.15625,-59.09375,0.0,0.0,0.0
1664629246315,-0.59765625,-0.10546875,0.10253906,66.8125,-12.9375,9.9375,0.0,0.0,0.0
1664629246345,-0.31640625,0.111328125,0.20800781,14.1875,60.96875,93.0,0.0,0.0,0.0
1664629246373,-1.6757812,-0.4921875,-0.53808594,-100.25,98.9375,66.9375,0.0,0.0,0.0
1664629246434,-1.9863281,0.25195312,0.10253906,-50.875,104.1875,67.0625,0.0,0.0,0.0
1664629246465,-0.50878906,0.060546875,0.20605469,-67.09375,82.03125,45.21875,-113.5625,-2.375,-143.4375
1664629246494,-1.2021484,0.09375,-0.29589844,-62.09375,75.3125,112.15625,0.0,0.0,0.0
1664629246554,-1.3203125,0.045898438,-0.016601562,-42.4375,46.375,74.625,0.0,0.0,0.0
1664629246583,-0.8154297,0.051757812,-0.001953125,-19.3125,17.28125,74.4375,0.0,0.0,0.0
1664629246616,-0.7871094,0.021484375,-0.087890625,-42.9375,4.625,48.75,0.0,0.0,0.0
1664629246674,-0.86621094,-0.09765625,-0.12109375,57.40625,24.46875,72.96875,0.0,0.0,0.0
1664629246706,-0.92089844,0.049804688,0.016601562,9.1875,-12.15625,47.28125,0.0,0.0,0.0
1664629246733,-0.92871094,0.17578125,-0.00390625,30.84375,-5.6875,33.125,0.0,0.0,0.0
1664629246793,-0.859375,-0.028320312,-0.076171875,9.1875,5.375,23.21875,0.0,0.0,0.0
1664629246854,-1.1816406,0.009765625,0.18164062,-27.0,27.78125,7.59375,0.0,0.0,0.0
1664629246858,-1.5390625,-0.28320312,0.00390625,1.5,22.34375,17.0,0.0,0.0,0.0
1664629246914,-1.3369141,0.18457031,0.23535156,55.15625,-5.0,19.9375,0.0,0.0,0.0
1664629246943,-1.5341797,0.018554688,-0.01953125,-7.53125,-37.78125,12.25,0.0,0.0,0.0
1664629246972,-1.2011719,0.2548828,0.07421875,25.25,-67.1875,-37.1875,-116.5625,12.5,-150.1875
1664629247068,-0.9921875,0.5263672,0.234375,-60.9375,-51.625,-77.84375,0.0,0.0,0.0
1664629247073,-0.99121094,-0.13574219,0.016601562,-218.71875,-47.65625,-83.8125,0.0,0.0,0.0
1664629247095,-1.3476562,-0.037109375,-0.052734375,-89.4375,-1.875,-140.84375,0.0,0.0,0.0
1664629247249,-0.90722656,0.7001953,0.3310547,70.9375,-38.375,-153.46875,0.0,0.0,0.0
1664629247254,-0.74902344,0.0546875,0.12597656,82.65625,-100.34375,-122.9375,0.0,0.0,0.0
1664629247257,-0.7753906,-0.125,0.123046875,11.3125,-79.90625,-161.09375,0.0,0.0,0.0
1664629247273,-0.52246094,-0.13671875,0.045898438,90.4375,-93.625,-111.09375,0.0,0.0,0.0
1664629247303,-0.7392578,-0.2109375,0.23632812,84.875,-68.0,-38.78125,0.0,0.0,0.0
1664629247335,-0.76953125,-0.07421875,0.10449219,18.28125,23.75,39.21875,0.0,0.0,0.0
1664629247395,-0.28125,0.0625,-0.10253906,-4.125,172.5,133.03125,0.0,0.0,0.0
1664629247424,-1.9863281,-0.23046875,-0.6044922,27.4375,133.0625,124.0,0.0,0.0,0.0
1664629247454,-0.61328125,0.15917969,-0.0107421875,39.8125,25.09375,35.1875,-112.8125,-6.5625,-135.9375
1664629247515,-0.4248047,0.25683594,0.07421875,-86.75,80.75,103.5,0.0,0.0,0.0
1664629247544,-1.6220703,-0.0126953125,-0.21679688,6.0625,42.375,124.5,0.0,0.0,0.0
1664629247602,-0.9824219,-0.080078125,-0.08691406,26.03125,10.75,89.46875,0.0,0.0,0.0
1664629247633,-0.6660156,0.025390625,-0.078125,9.5,31.96875,54.34375,0.0,0.0,0.0
1664629247663,-0.765625,-0.048828125,0.016601562,68.75,13.1875,58.3125,0.0,0.0,0.0
1664629247694,-0.7734375,0.13476562,-0.00390625,62.03125,-5.6875,27.875,0.0,0.0,0.0
1664629247753,-0.875,0.2861328,0.0546875,9.84375,7.875,31.59375,0.0,0.0,0.0
1664629247788,-1.2021484,-0.22851562,-0.0703125,-19.0,40.71875,39.65625,0.0,0.0,0.0
1664629247816,-1.5097656,-0.15039062,0.033203125,54.40625,44.625,28.53125,0.0,0.0,0.0
1664629247873,-1.1689453,0.4814453,0.12402344,76.5,15.03125,3.09375,0.0,0.0,0.0
1664629247905,-1.4462891,0.29785156,0.083984375,6.5625,-19.53125,21.65625,0.0,0.0,0.0
1664629247933,-1.1425781,0.26660156,0.0048828125,-5.46875,-60.53125,-16.5625,0.0,0.0,0.0
1664629247994,-1.1337891,0.34960938,0.2548828,-57.59375,-49.375,-48.3125,-117.875,9.625,-142.5625
1664629248023,-1.1210938,-0.36621094,-0.16699219,-170.625,-65.0625,-109.09375,0.0,0.0,0.0
1664629248059,-1.3251953,-0.057617188,-0.046875,-94.875,13.125,-129.0,0.0,0.0,0.0
1664629248115,-0.953125,0.3232422,-0.18261719,59.84375,12.15625,-116.0625,0.0,0.0,0.0
1664629248145,-0.8017578,0.2421875,0.6142578,96.71875,-89.90625,-138.03125,0.0,0.0,0.0
1664629248173,-0.5546875,0.29882812,0.036132812,48.5,-114.0625,-127.34375,0.0,0.0,0.0
1664629248234,-0.8017578,-0.09863281,0.057617188,39.09375,-85.625,-92.0625,0.0,0.0,0.0
1664629248265,-0.8691406,-0.20117188,0.15332031,60.75,-80.0,-55.5625,0.0,0.0,0.0
1664629248294,-0.63964844,-0.20898438,0.021484375,53.25,-20.09375,12.625,0.0,0.0,0.0
1664629248356,-0.1796875,0.30859375,0.1640625,1.625,72.75,87.375,0.0,0.0,0.0
1664629248384,-1.4052734,-0.46679688,-0.3857422,-80.84375,92.09375,126.875,0.0,0.0,0.0
1664629248418,-1.9863281,0.09277344,0.07324219,-59.0,106.375,82.0625,0.0,0.0,0.0
1664629248474,-0.3330078,-0.16015625,0.051757812,-62.28125,69.59375,52.21875,-113.25,-6.125,-132.9375
1664629248503,-0.95410156,0.11425781,-0.28320312,-15.15625,32.03125,98.4375,0.0,0.0,0.0
1664629248532,-1.1992188,-0.14355469,0.09375,9.125,44.0625,76.8125,0.0,0.0,0.0
1664629248607,-0.7167969,0.061523438,-0.103515625,-7.0,26.84375,44.21875,0.0,0.0,0.0
1664629248623,-0.69433594,0.09863281,-0.0087890625,33.78125,14.34375,60.875,0.0,0.0,0.0
1664629248654,-0.9609375,-0.060546875,-0.11230469,38.125,-0.3125,49.0625,0.0,0.0,0.0
1664629248714,-0.8691406,-0.02734375,-0.0078125,55.75,-15.5625,25.78125,0.0,0.0,0.0
1664629248743,-0.86328125,0.123046875,0.030273438,53.8125,-7.6875,10.84375,0.0,0.0,0.0
1664629248773,-1.1445312,0.049804688,-0.04296875,10.03125,11.0,7.375,0.0,0.0,0.0
1664629248805,-1.4277344,0.24316406,0.19628906,12.84375,17.21875,11.5625,0.0,0.0,0.0
1664629248866,-1.4931641,0.07910156,0.31152344,20.65625,-2.625,15.65625,0.0,0.0,0.0
1664629248895,-1.5,-0.09667969,-0.0126953125,-12.46875,-79.28125,-14.5,0.0,0.0,0.0
1664629248924,-1.1210938,0.51464844,0.18554688,16.875,-83.3125,-40.625,0.0,0.0,0.0
1664629248984,-1.0283203,0.26953125,0.15722656,-95.25,-59.4375,-51.28125,-115.9375,12.3125,-133.875
1664629249013,-1.1787109,-0.24804688,-0.38964844,-167.09375,-9.75,-92.125,0.0,0.0,0.0
1664629249046,-1.0703125,0.17773438,-0.15917969,-29.03125,91.0625,-118.90625,0.0,0.0,0.0
1664629249135,-0.9248047,0.3330078,0.39453125,133.8125,-104.0625,-120.5,0.0,0.0,0.0
1664629249140,-0.66796875,0.3017578,-0.057617188,-8.625,-64.375,-97.5,0.0,0.0,0.0
1664629249166,-0.8027344,-0.09667969,0.064453125,7.40625,-92.78125,-115.125,0.0,0.0,0.0
1664629249226,-0.65625,0.0126953125,-0.07421875,81.34375,-126.65625,-95.40625,0.0,0.0,0.0
1664629249254,-0.62402344,0.017578125,0.15917969,32.5,-68.53125,-73.03125,0.0,0.0,0.0
1664629249286,-0.4404297,-0.08886719,0.27734375,12.78125,-19.46875,-29.5625,0.0,0.0,0.0
1664629249344,-0.5751953,-0.44726562,0.32226562,-16.9375,51.03125,45.5625,0.0,0.0,0.0
1664629249378,-0.7792969,-0.59375,0.85546875,-79.5,104.0,138.53125,0.0,0.0,0.0
1664629249406,-1.9863281,0.3046875,1.2392578,-36.15625,105.78125,114.28125,0.0,0.0,0.0
1664629249463,-0.69140625,0.076171875,0.16601562,-19.8125,73.5,46.71875,-106.375,-3.4375,-124.5625
1664629249493,-0.6298828,0.26367188,-0.061523438,-68.15625,100.71875,127.84375,0.0,0.0,0.0
1664629249524,-1.3740234,-0.16992188,-0.021484375,-22.125,50.90625,99.03125,0.0,0.0,0.0
1664629249584,-0.9951172,-0.10253906,-0.17480469,0.15625,35.28125,62.28125,0.0,0.0,0.0
1664629249615,-0.8066406,0.08691406,0.0107421875,21.28125,27.90625,62.15625,0.0,0.0,0.0
1664629249643,-0.73339844,0.171875,-9.765625E-4,-1.5,29.3125,50.34375,0.0,0.0,0.0
1664629249703,-0.8691406,0.072265625,-0.057617188,31.9375,0.375,54.46875,0.0,0.0,0.0
1664629249740,-0.73828125,-0.022460938,0.009765625,55.5625,-15.1875,53.8125,0.0,0.0,0.0
1664629249766,-0.93066406,-0.125,-0.13378906,16.15625,12.875,28.0625,0.0,0.0,0.0
1664629249824,-1.3417969,-0.12695312,0.103515625,-11.5,49.0,15.28125,0.0,0.0,0.0
1664629249883,-1.3925781,0.09375,-0.0048828125,35.0625,34.65625,0.59375,0.0,0.0,0.0
1664629249885,-1.2724609,0.27539062,0.328125,10.15625,7.75,10.59375,0.0,0.0,0.0
1664629249945,-1.4716797,-0.0068359375,-0.016601562,-6.9375,-47.1875,-7.28125,0.0,0.0,0.0
1664629249976,-1.2421875,0.45703125,0.17773438,-25.84375,-61.40625,-55.9375,-109.9375,16.5625,-140.0
1664629250004,-1.0341797,0.15234375,0.20214844,-85.46875,-57.875,-61.25,0.0,0.0,0.0
1664629250066,-1.0742188,-0.12988281,-0.3125,-65.53125,-35.40625,-111.46875,0.0,0.0,0.0
1664629250094,-1.0859375,0.40722656,-0.3330078,-54.65625,5.25,-109.65625,0.0,0.0,0.0
1664629250123,-1.0371094,0.265625,0.64746094,103.3125,-132.875,-115.9375,0.0,0.0,0.0
1664629250186,-0.6386719,0.4716797,-0.0078125,-45.625,-48.8125,-113.4375,0.0,0.0,0.0
1664629250213,-0.7636719,-0.26464844,-0.11621094,1.8125,-64.03125,-105.84375,0.0,0.0,0.0
1664629250245,-0.85253906,-0.16503906,0.18261719,69.90625,-101.75,-99.6875,0.0,0.0,0.0
1664629250304,-0.6455078,-0.03125,0.05078125,98.125,-92.84375,-40.5,0.0,0.0,0.0
1664629250336,-0.42089844,0.028320312,0.15234375,60.625,-20.09375,38.3125,0.0,0.0,0.0
1664629250367,-0.17480469,0.11035156,0.21386719,-0.8125,112.625,111.625,0.0,0.0,0.0
1664629250425,-1.9863281,-0.39160156,-1.0126953,-26.40625,142.53125,109.84375,0.0,0.0,0.0
1664629250453,-1.2363281,0.20898438,0.18847656,18.15625,59.3125,76.5,-107.125,3.3125,-140.3125
1664629250484,-0.29589844,0.15917969,-0.0390625,-65.53125,98.8125,68.9375,0.0,0.0,0.0
1664629250546,-1.3164062,0.024414062,-0.29101562,-41.59375,52.375,109.21875,0.0,0.0,0.0
1664629250594,-1.125,-0.16503906,-0.032226562,19.875,9.09375,64.4375,0.0,0.0,0.0
1664629250603,-0.6875,0.16601562,-0.11621094,29.9375,18.375,50.09375,0.0,0.0,0.0
1664629250663,-0.7783203,-0.013671875,-0.08300781,31.71875,9.15625,66.125,0.0,0.0,0.0
1664629250695,-1.0654297,0.0087890625,0.053710938,72.0625,-14.53125,50.625,0.0,0.0,0.0
1664629250724,-0.86035156,0.10449219,-0.03515625,68.4375,-21.65625,22.75,0.0,0.0,0.0
1664629250783,-0.7705078,0.29589844,0.044921875,10.15625,4.53125,15.1875,0.0,0.0,0.0
1664629250814,-0.94628906,0.1953125,-0.05859375,-19.1875,9.46875,19.15625,0.0,0.0,0.0
1664629250844,-1.0595703,0.033203125,0.0146484375,25.40625,25.5,34.15625,0.0,0.0,0.0
1664629250904,-1.2626953,0.3173828,0.13769531,21.09375,30.28125,35.8125,0.0,0.0,0.0
1664629250937,-1.4121094,-0.05859375,0.12597656,0.28125,26.375,30.8125,0.0,0.0,0.0
1664629250993,-1.6640625,-0.16308594,-0.10253906,13.09375,-33.75,9.9375,-109.0625,17.4375,-155.0
1664629251025,-1.4365234,0.51660156,0.24609375,65.59375,-44.25,-23.03125,0.0,0.0,0.0
1664629251054,-1.1269531,0.4453125,0.5097656,-6.4375,-78.0,-31.8125,0.0,0.0,0.0
1664629251083,-1.0800781,-0.32226562,0.09472656,-96.78125,-179.375,-98.15625,0.0,0.0,0.0
1664629251144,-1.2802734,0.14453125,-0.4736328,-90.65625,-45.34375,-129.125,0.0,0.0,0.0
1664629251175,-1.015625,0.66015625,-0.18261719,-28.78125,70.875,-111.34375,0.0,0.0,0.0
1664629251202,-1.0048828,0.06347656,0.74121094,46.96875,-51.8125,-115.25,0.0,0.0,0.0
1664629251263,-0.77441406,0.056640625,-0.3642578,8.5,-67.75,-150.09375,0.0,0.0,0.0
1664629251293,-0.7441406,-0.041992188,0.015625,84.0,-83.5,-155.34375,0.0,0.0,0.0
1664629251322,-0.703125,-0.001953125,0.22167969,118.0625,-113.46875,-147.1875,0.0,0.0,0.0
1664629251411,-0.53125,-0.0126953125,0.06640625,99.53125,-78.78125,-97.0625,0.0,0.0,0.0
1664629251413,-0.51660156,-0.083984375,0.34179688,98.96875,-53.71875,-58.5625,0.0,0.0,0.0
1664629251474,-0.42285156,-0.11816406,0.45703125,90.78125,5.8125,16.9375,-93.625,-12.25,-129.375
1664629251501,-0.4814453,-0.2998047,0.25585938,5.03125,85.75,83.96875,0.0,0.0,0.0
1664629251534,-1.9863281,-0.8203125,-1.3710938,-38.53125,128.40625,34.34375,0.0,0.0,0.0
1664629251569,-0.75878906,0.2109375,-0.076171875,88.59375,78.5,64.75,0.0,0.0,0.0
1664629251623,-0.5097656,0.2763672,0.0068359375,-76.25,137.4375,85.5625,0.0,0.0,0.0
1664629251657,-1.5458984,-0.10253906,-0.16210938,-40.625,86.375,114.53125,0.0,0.0,0.0
1664629251685,-1.0859375,-0.36328125,0.029296875,-28.90625,85.5625,80.84375,0.0,0.0,0.0
1664629251746,-0.7519531,0.06542969,0.02734375,7.28125,62.0625,81.09375,0.0,0.0,0.0
1664629251781,-0.95996094,0.020507812,0.0029296875,29.4375,36.4375,96.15625,0.0,0.0,0.0
1664629251805,-0.8076172,0.12109375,0.046875,39.09375,27.03125,79.875,0.0,0.0,0.0
1664629251868,-0.73535156,-0.0146484375,-0.119140625,61.5,12.34375,84.375,0.0,0.0,0.0
1664629251899,-0.8330078,-0.17871094,-0.041992188,105.25,-6.71875,66.9375,0.0,0.0,0.0
1664629251925,-0.8105469,0.0234375,-0.15722656,50.25,47.59375,31.78125,0.0,0.0,0.0
1664629251983,-0.8222656,0.25878906,-0.033203125,51.71875,41.09375,38.25,-111.3125,10.8125,-141.0625
1664629252013,-1.0029297,0.19921875,-0.016601562,50.625,37.59375,34.8125,0.0,0.0,0.0
1664629252045,-1.0244141,0.14746094,-0.08300781,4.5,26.78125,42.6875,0.0,0.0,0.0
1664629252103,-1.1513672,0.0126953125,0.056640625,-2.28125,13.1875,44.65625,0.0,0.0,0.0
1664629252165,-1.1914062,-0.14648438,0.14941406,13.28125,-11.59375,0.65625,0.0,0.0,0.0
1664629252170,-1.4794922,-0.15136719,-0.26367188,67.21875,-98.4375,-31.6875,0.0,0.0,0.0
1664629252224,-1.5566406,0.33789062,0.16894531,61.75,-146.125,-65.03125,0.0,0.0,0.0
1664629252253,-1.1591797,0.33007812,-0.25,68.28125,-209.53125,-85.65625,0.0,0.0,0.0
1664629252284,-1.2597656,-9.765625E-4,-0.3642578,65.9375,-142.46875,-86.5,0.0,0.0,0.0
1664629252345,-1.4296875,-0.22753906,-0.21191406,31.65625,-114.0625,-113.5,0.0,0.0,0.0
1664629252375,-1.2675781,0.14941406,0.15332031,-147.75,-6.78125,-156.03125,0.0,0.0,0.0
1664629252404,-0.9628906,0.30273438,-0.22558594,148.09375,-58.34375,-138.28125,0.0,0.0,0.0
1664629252464,-0.86328125,-0.083984375,-0.16601562,135.03125,-21.65625,-127.21875,-105.625,7.25,-120.0625
1664629252495,-0.7871094,0.061523438,-0.1953125,175.5,-14.28125,-125.875,0.0,0.0,0.0
1664629252525,-0.5576172,0.07519531,-0.08984375,190.71875,-1.34375,-84.96875,0.0,0.0,0.0
1664629252584,-0.47460938,0.32617188,0.0048828125,157.8125,13.78125,-24.0,0.0,0.0,0.0
1664629252614,-0.56347656,0.4658203,0.19042969,107.34375,37.0,15.78125,0.0,0.0,0.0
1664629252645,-0.7910156,0.24902344,0.4169922,94.5625,112.90625,76.875,0.0,0.0,0.0
1664629252704,-1.3730469,-0.51953125,0.45996094,66.125,49.75,170.75,0.0,0.0,0.0
1664629252736,-1.7333984,-1.0097656,-0.034179688,101.09375,-32.96875,2.84375,0.0,0.0,0.0
1664629252764,-0.8886719,0.16992188,-0.33203125,-66.0625,86.5,-82.0,0.0,0.0,0.0
1664629252823,-1.9863281,0.8066406,1.9228516,41.15625,-46.4375,10.59375,0.0,0.0,0.0
1664629252851,-0.7050781,-0.30371094,-0.60253906,76.3125,-68.53125,36.71875,0.0,0.0,0.0
1664629252881,-0.7167969,-0.17675781,-0.4736328,228.0,-60.46875,29.75,0.0,0.0,0.0
1664629252943,-1.1777344,0.4296875,0.53027344,134.78125,90.9375,-38.96875,0.0,0.0,0.0
1664629252983,-0.9707031,0.39257812,-0.0546875,118.125,17.59375,-12.96875,-107.375,27.9375,-134.4375
1664629253002,-0.77734375,0.30078125,0.109375,83.59375,12.21875,10.0,0.0,0.0,0.0
1664629253063,-1.0361328,-0.017578125,0.013671875,27.375,46.8125,7.71875,0.0,0.0,0.0
1664629253095,-1.0361328,-0.2685547,0.046875,105.8125,43.34375,8.40625,0.0,0.0,0.0
1664629253124,-0.8388672,0.10546875,0.07128906,61.8125,58.34375,-11.375,0.0,0.0,0.0
1664629253186,-1.0117188,0.0390625,0.07128906,102.5,49.0,30.90625,0.0,0.0,0.0
1664629253214,-0.8769531,0.07714844,-0.045898438,80.28125,30.6875,31.59375,0.0,0.0,0.0
1664629253245,-0.9824219,0.2607422,-0.12695312,79.375,26.75,29.21875,0.0,0.0,0.0
1664629253304,-1.0039062,0.015625,-0.32421875,15.84375,18.125,39.46875,0.0,0.0,0.0
1664629253333,-1.1640625,0.20214844,-0.2607422,56.78125,30.34375,41.78125,0.0,0.0,0.0
1664629253366,-1.4355469,0.08886719,0.0859375,8.5625,35.53125,33.0,0.0,0.0,0.0
1664629253423,-1.7255859,-0.14746094,0.05078125,8.5,-4.5,3.8125,0.0,0.0,0.0
1664629253455,-1.5380859,0.103515625,0.15625,35.78125,-80.4375,-39.03125,-106.9375,32.0,-152.625
1664629253483,-1.4541016,0.3642578,0.08691406,88.90625,-103.9375,-85.53125,0.0,0.0,0.0
1664629253543,-1.2919922,0.42773438,-0.37890625,81.03125,-122.5625,-92.0625,0.0,0.0,0.0
1664629253576,-1.3955078,0.6953125,-0.3046875,-29.03125,-76.78125,-121.78125,0.0,0.0,0.0
1664629253603,-1.0537109,0.546875,0.14648438,-36.90625,-22.46875,-98.90625,0.0,0.0,0.0
1664629253701,-0.7626953,-0.01171875,-0.23046875,-16.5625,-5.90625,-142.84375,0.0,0.0,0.0
1664629253705,-0.9609375,-0.5292969,-0.033203125,32.3125,-8.90625,-141.375,0.0,0.0,0.0
1664629253724,-0.90527344,-0.10839844,0.047851562,112.28125,-75.0625,-185.21875,0.0,0.0,0.0
1664629253784,-0.7578125,-0.12011719,-0.15527344,189.25,-104.625,-121.0,0.0,0.0,0.0
1664629253816,-0.31445312,0.13671875,0.0146484375,135.84375,-55.90625,-49.40625,0.0,0.0,0.0
1664629253844,-0.068359375,0.19140625,-0.09863281,77.59375,31.75,28.46875,0.0,0.0,0.0
1664629253903,-0.21484375,0.18261719,0.41210938,22.6875,148.3125,120.9375,0.0,0.0,0.0
1664629253936,-1.9863281,-0.19726562,-0.37597656,86.46875,192.25,97.875,0.0,0.0,0.0
1664629253963,-0.6972656,-0.07714844,0.051757812,33.53125,69.71875,32.6875,-116.375,16.25,-144.5
1664629254023,-0.51953125,0.29003906,-0.09472656,-28.28125,65.625,87.1875,0.0,0.0,0.0
1664629254056,-1.421875,0.08300781,-0.1328125,1.8125,59.9375,107.71875,0.0,0.0,0.0
1664629254084,-0.9277344,-0.0859375,-0.078125,27.0625,8.5,76.875,0.0,0.0,0.0
1664629254143,-0.8457031,0.024414062,-0.029296875,43.5,5.4375,58.5625,0.0,0.0,0.0
1664629254173,-0.7402344,0.08203125,-0.15234375,79.0625,0.625,53.625,0.0,0.0,0.0
1664629254209,-0.8310547,0.24023438,-0.0126953125,82.84375,22.15625,42.6875,0.0,0.0,0.0
1664629254263,-0.96875,0.17871094,-0.06542969,52.71875,-6.09375,43.8125,0.0,0.0,0.0
1664629254296,-0.8808594,0.14746094,0.08496094,33.90625,12.15625,30.3125,0.0,0.0,0.0
1664629254323,-1.0136719,-0.024414062,-0.005859375,23.40625,-17.34375,24.21875,0.0,0.0,0.0
1664629254385,-1.0634766,-9.765625E-4,0.09765625,21.21875,11.0,16.9375,0.0,0.0,0.0
1664629254445,-1.3486328,-0.10253906,0.07324219,28.84375,27.28125,20.59375,0.0,0.0,0.0
1664629254450,-1.5048828,0.14355469,0.045898438,72.40625,14.84375,21.59375,-109.375,31.6875,-157.6875
1664629254504,-1.4101562,0.29296875,-0.015625,49.96875,-57.75,-13.5,0.0,0.0,0.0
1664629254539,-1.3789062,0.48632812,0.28027344,51.59375,-70.8125,-23.09375,0.0,0.0,0.0
1664629254564,-1.0019531,0.29492188,0.265625,-54.96875,-65.5,-32.375,0.0,0.0,0.0
1664629254624,-1.0234375,-0.072265625,-0.02734375,-159.625,-65.0625,-81.875,0.0,0.0,0.0
1664629254653,-1.2080078,0.16601562,-0.3359375,-111.0625,16.25,-109.71875,0.0,0.0,0.0
1664629254685,-0.9560547,0.18652344,0.08300781,-31.21875,81.71875,-108.40625,0.0,0.0,0.0
1664629254743,-0.9013672,0.43066406,0.65234375,119.96875,-121.9375,-138.34375,0.0,0.0,0.0
1664629254775,-0.63183594,0.27441406,-0.17675781,1.8125,-100.84375,-110.75,0.0,0.0,0.0
1664629254805,-0.74609375,-0.01953125,0.083984375,26.40625,-91.78125,-117.40625,0.0,0.0,0.0
1664629254864,-0.6660156,-0.22265625,0.10058594,64.90625,-90.5625,-92.6875,0.0,0.0,0.0
1664629254892,-0.5078125,-0.109375,0.33984375,74.75,-74.21875,-41.28125,0.0,0.0,0.0
1664629254925,-0.41015625,-0.03125,0.32910156,57.40625,-21.0,40.5625,0.0,0.0,0.0
1664629254987,-0.27539062,0.033203125,0.42871094,-57.15625,110.96875,119.84375,-116.6875,14.75,-138.625
1664629255013,-1.9863281,-0.140625,-0.6142578,-54.0625,175.125,116.4375,0.0,0.0,0.0
1664629255044,-0.92578125,-0.22363281,0.24121094,8.9375,63.0,29.03125,0.0,0.0,0.0
1664629255103,-0.16894531,-0.1640625,0.08496094,-54.28125,97.46875,89.75,0.0,0.0,0.0
1664629255133,-1.5322266,0.052734375,-0.26757812,2.78125,64.8125,124.0,0.0,0.0,0.0
1664629255165,-1.1787109,-0.038085938,-0.13964844,25.96875,45.21875,73.53125,0.0,0.0,0.0
1664629255225,-0.625,0.0859375,0.087890625,43.25,30.21875,68.75,0.0,0.0,0.0
1664629255252,-0.7089844,0.11621094,0.036132812,72.53125,-0.1875,53.125,0.0,0.0,0.0
1664629255285,-0.8457031,0.22167969,-0.0703125,14.625,17.46875,45.4375,0.0,0.0,0.0
1664629255345,-0.75,0.103515625,0.08300781,0.28125,11.65625,38.0,0.0,0.0,0.0
1664629255377,-0.9189453,-0.23242188,0.0068359375,12.125,3.46875,32.5625,0.0,0.0,0.0
1664629255407,-1.140625,-0.19726562,-0.080078125,43.3125,4.15625,10.65625,0.0,0.0,0.0
1664629255464,-1.3515625,0.18945312,-0.02734375,14.4375,33.5625,-2.40625,-108.125,36.9375,-163.375
1664629255494,-1.5292969,0.18164062,0.20898438,31.875,58.15625,17.125,0.0,0.0,0.0
1664629255526,-1.6640625,0.23730469,0.25195312,20.34375,-13.59375,16.15625,0.0,0.0,0.0
1664629255585,-1.1767578,0.359375,0.1640625,-13.03125,-68.59375,-19.125,0.0,0.0,0.0
1664629255615,-0.9345703,0.40234375,0.2705078,-58.375,-59.3125,-37.9375,0.0,0.0,0.0
1664629255645,-1.0175781,-0.059570312,-0.31933594,-99.8125,-73.4375,-77.78125,0.0,0.0,0.0
1664629255704,-1.3085938,-0.024414062,0.037109375,-214.5625,34.5625,-121.375,0.0,0.0,0.0
1664629255735,-1.0761719,0.43554688,0.072265625,13.09375,-27.65625,-137.34375,0.0,0.0,0.0
1664629255769,-0.66503906,0.23632812,0.45898438,-16.03125,-48.9375,-140.40625,0.0,0.0,0.0
1664629255823,-0.67578125,0.0234375,-0.0029296875,55.375,-88.4375,-122.40625,0.0,0.0,0.0
1664629255857,-0.79785156,-0.15429688,-0.024414062,73.28125,-109.125,-120.8125,0.0,0.0,0.0
1664629255883,-0.86328125,-0.28808594,0.12695312,87.125,-85.8125,-81.9375,0.0,0.0,0.0
1664629255979,-0.6796875,-0.16113281,0.16210938,46.59375,-20.8125,-10.40625,0.0,0.0,0.0
1664629255983,-0.18359375,0.21582031,0.27441406,35.84375,57.125,81.03125,-119.6875,11.0,-149.75
1664629256005,-1.0390625,-0.31933594,-0.078125,-77.1875,109.6875,154.59375,0.0,0.0,0.0
1664629256064,-1.9863281,0.43554688,0.17382812,-56.96875,167.78125,115.8125,0.0,0.0,0.0
1664629256096,-0.41503906,-0.09863281,0.0107421875,-12.78125,79.53125,27.625,0.0,0.0,0.0
1664629256131,-0.5058594,0.41601562,-0.21875,-73.75,88.125,88.78125,0.0,0.0,0.0
1664629256185,-1.2792969,9.765625E-4,-0.15039062,-46.78125,76.96875,100.625,0.0,0.0,0.0
1664629256213,-0.9667969,-0.029296875,-0.125,-43.84375,30.8125,79.8125,0.0,0.0,0.0
1664629256243,-0.71777344,-0.1171875,-0.07128906,-3.15625,8.59375,71.4375,0.0,0.0,0.0
1664629256307,-0.86328125,-0.10253906,-0.10253906,44.34375,-11.03125,62.71875,0.0,0.0,0.0
1664629256334,-0.9667969,-0.09863281,-0.0107421875,62.28125,10.0625,33.59375,0.0,0.0,0.0
1664629256363,-0.73046875,0.22167969,0.013671875,40.0625,-0.96875,0.15625,0.0,0.0,0.0
1664629256423,-0.8769531,0.20996094,-0.0078125,38.0,-9.875,-0.75,0.0,0.0,0.0
1664629256454,-1.2021484,0.23339844,0.09765625,3.625,10.875,8.09375,-109.5,34.0625,-171.1875
1664629256485,-1.6416016,-0.16601562,9.765625E-4,23.65625,11.78125,39.03125,0.0,0.0,0.0
1664629256544,-1.4541016,-0.025390625,-0.0859375,27.5625,-4.15625,24.40625,0.0,0.0,0.0
1664629256577,-1.4375,0.3310547,-0.01953125,27.8125,-39.5625,-16.1875,0.0,0.0,0.0
1664629256605,-1.2695312,0.42285156,0.2626953,-9.0,-38.5,-40.1875,0.0,0.0,0.0
1664629256665,-0.9140625,0.12402344,-0.2841797,-129.375,-32.09375,-63.375,0.0,0.0,0.0
1664629256725,-1.3007812,-0.17089844,0.29101562,-217.25,53.96875,-133.875,0.0,0.0,0.0
1664629256729,-1.2021484,0.5830078,-0.23828125,92.5625,-89.84375,-138.03125,0.0,0.0,0.0
1664629256783,-0.73339844,0.3154297,0.2705078,-7.71875,-40.09375,-149.375,0.0,0.0,0.0
1664629256813,-0.8984375,-0.20410156,-0.18847656,75.65625,-92.71875,-122.28125,0.0,0.0,0.0
1664629256843,-0.75390625,0.0078125,0.24511719,70.59375,-127.0625,-125.5,0.0,0.0,0.0
1664629256903,-0.49804688,-0.076171875,0.08203125,73.6875,-111.625,-65.40625,0.0,0.0,0.0
1664629256937,-0.71777344,-0.09667969,0.115234375,61.25,-60.46875,3.03125,0.0,0.0,0.0
1664629256963,-0.5576172,0.038085938,0.125,36.78125,19.59375,79.125,-119.375,8.125,-150.1875
1664629257023,-0.015625,0.40722656,0.73535156,-32.6875,113.15625,146.9375,0.0,0.0,0.0
1664629257054,-1.9863281,0.37597656,0.5800781,-79.1875,211.375,115.28125,0.0,0.0,0.0
1664629257087,-1.0078125,-0.28320312,0.0107421875,-15.46875,77.8125,30.625,0.0,0.0,0.0
1664629257144,-0.73339844,0.17773438,-0.15917969,-41.90625,64.8125,110.15625,0.0,0.0,0.0
1664629257181,-1.2294922,0.15234375,-0.16894531,34.03125,17.28125,103.75,0.0,0.0,0.0
1664629257205,-0.8828125,0.18359375,-0.0146484375,64.71875,-7.875,82.1875,0.0,0.0,0.0
1664629257263,-0.6669922,-0.053710938,0.0029296875,24.625,16.90625,54.65625,0.0,0.0,0.0
1664629257293,-0.8417969,-0.052734375,-0.029296875,19.375,11.0625,35.9375,0.0,0.0,0.0
1664629257325,-0.74316406,0.028320312,-0.0234375,53.75,-16.90625,20.78125,0.0,0.0,0.0
1664629257391,-0.8857422,0.125,0.08203125,50.09375,-12.9375,12.5625,0.0,0.0,0.0
1664629257416,-1.0732422,0.13964844,0.0078125,30.5,15.9375,1.375,0.0,0.0,0.0
1664629257443,-1.4228516,0.21875,0.0146484375,7.125,40.28125,14.1875,-111.625,30.3125,-169.375
1664629257505,-1.4091797,0.20214844,0.296875,-1.0625,20.09375,33.0625,0.0,0.0,0.0
1664629257535,-1.4560547,-0.0087890625,0.07910156,3.25,-31.3125,22.625,0.0,0.0,0.0
1664629257565,-1.171875,0.29003906,-0.020507812,-2.21875,-64.5,-41.71875,0.0,0.0,0.0
1664629257622,-1.1533203,0.5126953,0.17773438,-34.09375,-47.25,-59.71875,0.0,0.0,0.0
1664629257653,-1.0742188,-0.056640625,-0.13964844,-187.40625,-6.90625,-83.03125,0.0,0.0,0.0
1664629257683,-1.3583984,0.234375,-0.08105469,-77.90625,20.4375,-125.34375,0.0,0.0,0.0
1664629257744,-0.8808594,0.23046875,-0.13085938,58.9375,-20.3125,-123.0,0.0,0.0,0.0
1664629257774,-0.6435547,0.49023438,0.48339844,33.78125,-76.78125,-145.21875,0.0,0.0,0.0
1664629257804,-0.7060547,-0.056640625,-0.140625,39.40625,-72.875,-118.1875,0.0,0.0,0.0
1664629257863,-0.8076172,-0.24609375,0.15820312,71.4375,-80.5,-127.15625,0.0,0.0,0.0
1664629257896,-0.98339844,-0.24511719,0.13085938,76.25,-69.09375,-65.4375,0.0,0.0,0.0
1664629257924,-0.58691406,0.02734375,-0.22167969,36.21875,-26.4375,40.5,0.0,0.0,0.0
1664629257983,-0.076171875,0.41210938,-0.061523438,-9.96875,136.46875,116.5,-120.625,3.8125,-151.6875
1664629258012,-1.9863281,0.057617188,-1.0927734,-54.53125,73.84375,118.3125,0.0,0.0,0.0
1664629258048,-1.4707031,-0.1875,0.0,-32.3125,59.875,83.71875,0.0,0.0,0.0
1664629258104,-0.2705078,-0.078125,0.13476562,-47.03125,54.875,72.90625,0.0,0.0,0.0
1664629258134,-0.99316406,0.21777344,-0.2626953,-8.34375,44.25,101.28125,0.0,0.0,0.0
1664629258170,-1.0654297,0.06347656,-0.07128906,25.78125,17.65625,84.4375,0.0,0.0,0.0
1664629258256,-0.7685547,0.041992188,0.032226562,79.0,2.5,64.4375,0.0,0.0,0.0
1664629258261,-0.86035156,0.115234375,-0.02734375,43.5,-0.375,37.09375,0.0,0.0,0.0
1664629258284,-0.8691406,0.111328125,-0.021484375,54.71875,-21.71875,36.15625,0.0,0.0,0.0
1664629258345,-0.7910156,0.037109375,0.05859375,34.5,-19.59375,21.46875,0.0,0.0,0.0
1664629258374,-1.046875,-0.026367188,-0.021484375,33.0625,5.0625,5.78125,0.0,0.0,0.0
1664629258406,-1.3974609,0.076171875,0.0390625,47.03125,20.5,10.59375,0.0,0.0,0.0
1664629258464,-1.359375,0.25,0.11816406,29.15625,31.0,23.90625,-115.0625,23.4375,-168.375
1664629258495,-1.4169922,0.123046875,0.13574219,34.625,18.8125,54.46875,0.0,0.0,0.0
1664629258523,-1.3085938,0.024414062,-0.24902344,9.375,-47.125,-2.21875,0.0,0.0,0.0
1664629258583,-1.2304688,0.6220703,0.13964844,46.84375,-23.125,-30.1875,0.0,0.0,0.0
1664629258615,-1.0742188,0.24414062,0.07714844,-40.375,-62.8125,-35.0,0.0,0.0,0.0
1664629258643,-1.0078125,-0.11230469,-0.22851562,-147.96875,-17.15625,-88.9375,0.0,0.0,0.0
1664629258703,-1.1123047,0.25878906,-0.13769531,-80.0,39.125,-137.46875,0.0,0.0,0.0
1664629258736,-0.89453125,0.23925781,0.021484375,99.40625,-34.84375,-119.34375,0.0,0.0,0.0
1664629258763,-0.921875,0.22363281,0.16894531,60.46875,-76.34375,-132.21875,0.0,0.0,0.0
1664629258854,-0.9042969,-0.036132812,0.14257812,72.46875,-123.59375,-143.53125,0.0,0.0,0.0
1664629258857,-0.65234375,0.16699219,0.01953125,80.28125,-130.84375,-111.53125,0.0,0.0,0.0
1664629258883,-0.87402344,-0.22167969,0.12402344,64.96875,-88.5,-67.65625,0.0,0.0,0.0
1664629258943,-0.61035156,-0.020507812,0.24414062,61.96875,-54.3125,-10.59375,0.0,0.0,0.0
1664629259006,-0.32128906,0.076171875,-0.080078125,8.875,28.125,52.65625,-114.4375,-1.4375,-146.0
1664629259009,-0.16210938,0.15820312,0.98046875,-65.03125,136.90625,166.65625,0.0,0.0,0.0
1664629259062,-1.9863281,0.18554688,0.98828125,-123.6875,207.75,90.90625,0.0,0.0,0.0
1664629259093,-0.40820312,-0.107421875,0.038085938,3.625,61.03125,31.46875,0.0,0.0,0.0
1664629259126,-0.5332031,0.3330078,-0.125,-82.84375,94.78125,113.625,0.0,0.0,0.0
1664629259183,-1.6279297,-0.14453125,-0.15820312,33.40625,47.125,113.25,0.0,0.0,0.0
1664629259213,-0.8046875,-0.047851562,-0.12988281,69.0625,-0.65625,63.15625,0.0,0.0,0.0
1664629259243,-0.4765625,0.14550781,-0.0048828125,50.1875,30.03125,39.84375,0.0,0.0,0.0
1664629259305,-0.7294922,0.13964844,0.005859375,67.34375,25.34375,56.1875,0.0,0.0,0.0
1664629259333,-1.0361328,0.19726562,0.08105469,45.4375,1.59375,33.0,0.0,0.0,0.0
1664629259363,-0.85058594,0.20898438,-0.00390625,35.75,-8.3125,36.15625,0.0,0.0,0.0
1664629259515,-0.91796875,-0.072265625,-0.103515625,-5.875,-1.59375,12.84375,-111.625,20.5625,-163.875
1664629259525,-1.1210938,-0.37695312,-0.2939453,-13.09375,21.78125,14.0,0.0,0.0,0.0
1664629259528,-1.3515625,0.076171875,-0.17773438,23.96875,57.3125,19.3125,0.0,0.0,0.0
1664629259542,-1.5068359,0.20507812,0.4326172,-0.34375,67.3125,41.65625,0.0,0.0,0.0
1664629259575,-1.2822266,-0.021484375,-0.07519531,-20.84375,-42.0,43.9375,0.0,0.0,0.0
1664629259607,-1.4082031,0.24707031,0.040039062,67.28125,-42.40625,-31.875,0.0,0.0,0.0
1664629259698,-1.0673828,0.44335938,0.12109375,22.78125,-88.5,-42.4375,0.0,0.0,0.0
1664629259701,-0.9951172,-0.10449219,-0.14453125,18.34375,-137.875,-84.625,0.0,0.0,0.0
1664629259723,-0.9638672,0.3798828,-0.3486328,99.75,-134.40625,-100.78125,0.0,0.0,0.0
1664629259782,-1.34375,0.5205078,0.62890625,-38.25,-5.1875,-83.28125,0.0,0.0,0.0
1664629259814,-0.6591797,0.31835938,-0.28808594,18.28125,-160.75,-74.5625,0.0,0.0,0.0
1664629259845,-1.2578125,-0.2421875,0.22753906,-115.5,14.15625,-94.4375,0.0,0.0,0.0
1664629259906,-0.92578125,-0.125,0.047851562,8.75,-47.1875,-141.8125,0.0,0.0,0.0
1664629259933,-0.5136719,0.051757812,-0.051757812,84.0625,-31.75,-109.34375,0.0,0.0,0.0
1664629259963,-0.38378906,0.026367188,-0.05078125,89.9375,-1.84375,-26.75,-108.75,4.6875,-146.3125
1664629260022,-0.34375,-0.16015625,-0.005859375,66.75,56.9375,36.125,0.0,0.0,0.0
1664629260052,-0.53808594,0.021484375,0.37304688,125.34375,169.5,127.90625,0.0,0.0,0.0
1664629260083,-1.1796875,-0.30664062,0.18847656,222.3125,-97.15625,158.0625,0.0,0.0,0.0
1664629260143,-1.5732422,1.0117188,1.5673828,196.125,-81.34375,-10.46875,0.0,0.0,0.0
1664629260174,-1.6904297,1.5917969,0.23730469,-299.21875,-18.90625,45.4375,0.0,0.0,0.0
1664629260202,-1.1542969,-0.9951172,-1.4423828,120.6875,-20.6875,110.21875,0.0,0.0,0.0
1664629260263,-1.09375,-0.6826172,0.16992188,180.375,99.25,59.90625,0.0,0.0,0.0
1664629260293,-1.0419922,0.2890625,0.35742188,138.8125,-30.8125,-32.875,0.0,0.0,0.0
1664629260326,-0.83691406,0.3095703,-0.3173828,154.15625,-5.96875,6.9375,0.0,0.0,0.0
1664629260387,-0.87890625,0.3466797,0.26757812,115.6875,17.34375,14.0,0.0,0.0,0.0
1664629260416,-0.828125,-0.0146484375,-0.08496094,171.46875,-14.53125,28.84375,0.0,0.0,0.0
1664629260442,-0.9316406,0.14355469,-0.16992188,106.0,59.875,5.90625,-109.1875,16.5625,-156.8125
1664629260534,-0.9033203,0.27246094,0.10839844,56.125,74.59375,13.71875,0.0,0.0,0.0
1664629260537,-0.93652344,0.083984375,-0.09472656,92.5,26.96875,32.3125,0.0,0.0,0.0
1664629260568,-1.0751953,0.27441406,0.13574219,57.28125,20.625,50.875,0.0,0.0,0.0
1664629260623,-1.2675781,-0.095703125,0.39257812,61.8125,-2.6875,38.3125,0.0,0.0,0.0
1664629260658,-1.4013672,-0.89453125,0.06738281,64.25,-94.34375,-15.46875,0.0,0.0,0.0
1664629260684,-1.5351562,-0.2763672,-0.3388672,139.3125,-146.25,-71.75,0.0,0.0,0.0
1664629260746,-1.3574219,0.6875,0.36816406,-7.0,-223.03125,-126.625,0.0,0.0,0.0
1664629260772,-1.4111328,0.30664062,-0.3173828,199.90625,-222.78125,-129.65625,0.0,0.0,0.0
1664629260805,-1.4755859,-0.0048828125,-0.7480469,-81.75,-71.09375,-120.375,0.0,0.0,0.0
1664629260863,-1.8115234,-0.9267578,0.60546875,-93.59375,90.21875,-232.3125,0.0,0.0,0.0
1664629260893,-1.2470703,0.31445312,-0.16699219,233.5625,-88.5,-241.40625,0.0,0.0,0.0
1664629260922,-1.0869141,0.17089844,-0.029296875,262.53125,-89.46875,-189.21875,0.0,0.0,0.0
1664629260984,-1.0458984,0.15429688,-0.0068359375,252.78125,-137.03125,-174.40625,-102.125,-8.6875,-137.0
1664629261012,-0.24121094,0.3251953,0.12109375,167.375,-52.96875,-155.34375,0.0,0.0,0.0
1664629261043,-0.140625,-0.08496094,0.25976562,148.71875,14.59375,-90.71875,0.0,0.0,0.0
1664629261107,-0.31640625,-0.35839844,0.38867188,131.9375,60.5,-16.1875,0.0,0.0,0.0
1664629261133,-0.27734375,-0.4267578,0.3486328,87.6875,98.09375,9.8125,0.0,0.0,0.0
1664629261162,-1.3945312,-0.94140625,1.5664062,-138.28125,174.5,-34.75,0.0,0.0,0.0
1664629261192,-1.4707031,0.48242188,0.3232422,-21.625,106.3125,7.84375,0.0,0.0,0.0
1664629261283,-0.34570312,0.16894531,0.6513672,-93.65625,206.0,48.1875,0.0,0.0,0.0
1664629261286,-1.8554688,0.09863281,-0.20800781,-21.875,89.40625,130.15625,0.0,0.0,0.0
1664629261324,-0.9970703,-0.029296875,-0.07910156,-11.4375,81.65625,76.5625,0.0,0.0,0.0
1664629261374,-0.7753906,0.18457031,-0.111328125,-34.40625,78.90625,87.3125,0.0,0.0,0.0
1664629261410,-0.8574219,-0.0146484375,-0.0146484375,-13.9375,64.75,89.6875,0.0,0.0,0.0
1664629261465,-0.82421875,0.015625,-0.028320312,-12.40625,22.9375,60.9375,-115.5,3.5,-149.4375
1664629261494,-0.7216797,0.2607422,0.17578125,57.46875,15.4375,42.40625,0.0,0.0,0.0
1664629261522,-0.85058594,0.103515625,0.018554688,18.46875,3.40625,48.4375,0.0,0.0,0.0
1664629261553,-1.2285156,-0.14453125,-9.765625E-4,4.25,19.15625,34.34375,0.0,0.0,0.0
1664629261613,-1.6386719,-0.1796875,0.20214844,-6.3125,54.03125,25.78125,0.0,0.0,0.0
1664629261644,-1.4511719,-0.083984375,0.27441406,29.875,26.375,27.3125,0.0,0.0,0.0
1664629261673,-1.3154297,-0.005859375,0.14746094,16.21875,-26.0,8.8125,0.0,0.0,0.0
1664629261735,-1.1669922,0.25878906,0.140625,24.25,-81.84375,-30.53125,0.0,0.0,0.0
1664629261764,-1.2929688,0.35742188,0.22558594,-22.5,-69.34375,-54.71875,0.0,0.0,0.0
1664629261793,-0.94921875,-0.21582031,-0.6816406,-141.5,-36.1875,-108.78125,0.0,0.0,0.0
1664629261852,-1.1123047,0.34277344,-0.2421875,38.25,30.65625,-87.71875,0.0,0.0,0.0
1664629261883,-1.1162109,0.15625,0.19921875,99.75,-82.875,-116.59375,0.0,0.0,0.0
1664629261974,-0.59277344,0.48535156,-0.055664062,-40.375,-69.09375,-105.0625,-113.875,-6.25,-142.375
1664629261977,-0.8310547,-0.3564453,0.12109375,63.125,-51.9375,-128.5625,0.0,0.0,0.0
1664629262004,-0.74902344,-0.00390625,0.09765625,104.46875,-102.125,-90.90625,0.0,0.0,0.0
1664629262032,-0.7753906,-0.09375,-0.00390625,113.3125,-64.375,-18.15625,0.0,0.0,0.0
1664629262094,-0.42285156,0.0146484375,-0.12988281,64.96875,-1.09375,39.78125,0.0,0.0,0.0
1664629262123,-0.18847656,0.2861328,0.22460938,-9.375,126.15625,124.0625,0.0,0.0,0.0
1664629262157,-1.9042969,0.46972656,0.1484375,-17.0,151.25,108.75,0.0,0.0,0.0
1664629262215,-0.9453125,-0.059570312,0.17578125,-19.3125,82.53125,41.1875,0.0,0.0,0.0
1664629262243,-0.46484375,0.18164062,-0.013671875,-38.96875,64.28125,64.375,0.0,0.0,0.0
1664629262273,-1.4326172,0.087890625,-0.1640625,-2.53125,43.09375,94.46875,0.0,0.0,0.0
1664629262365,-0.95214844,-0.048828125,-0.0703125,44.65625,6.59375,63.21875,0.0,0.0,0.0
1664629262369,-0.87402344,-0.024414062,-0.032226562,41.65625,24.0,44.34375,0.0,0.0,0.0
1664629262404,-0.83203125,0.1171875,0.026367188,96.40625,-4.21875,35.8125,0.0,0.0,0.0
1664629262453,-0.8769531,0.2529297,0.025390625,48.625,-9.15625,26.09375,-118.9375,6.8125,-146.75
1664629262486,-1.0253906,0.16992188,0.064453125,19.3125,-0.90625,20.71875,0.0,0.0,0.0
1664629262514,-1.1201172,-0.10546875,-0.076171875,48.6875,10.25,20.71875,0.0,0.0,0.0
1664629262578,-1.3066406,0.14355469,0.05078125,-7.125,46.5,5.71875,0.0,0.0,0.0
1664629262604,-1.3046875,0.23828125,0.068359375,39.15625,0.78125,8.46875,0.0,0.0,0.0
1664629262634,-1.4189453,0.2861328,0.28710938,-29.375,-31.6875,-26.5,0.0,0.0,0.0
1664629262693,-1.2568359,0.2578125,0.25195312,-67.40625,-75.5625,-42.5,0.0,0.0,0.0
1664629262724,-0.9824219,0.009765625,0.08984375,-122.46875,-55.71875,-62.84375,0.0,0.0,0.0
1664629262753,-1.2441406,-0.024414062,-0.12207031,-174.71875,-6.28125,-98.90625,0.0,0.0,0.0
1664629262817,-1.1660156,0.14746094,-0.08300781,-45.8125,67.375,-114.90625,0.0,0.0,0.0
1664629262843,-0.80078125,0.2998047,0.6425781,88.53125,-77.28125,-139.1875,0.0,0.0,0.0
1664629262872,-0.7285156,0.27929688,-0.10449219,34.09375,-74.71875,-111.71875,0.0,0.0,0.0
1664629262933,-0.77441406,-0.16699219,-0.05078125,32.625,-77.5,-105.0625,0.0,0.0,0.0
1664629262964,-0.67285156,-0.10058594,0.14453125,58.3125,-54.5625,-85.78125,-110.25,-13.0,-133.5625
1664629262995,-0.6425781,-0.15429688,0.13183594,72.28125,-31.75,-16.6875,0.0,0.0,0.0
1664629263055,-0.45214844,-0.037109375,-0.020507812,46.34375,8.4375,46.0625,0.0,0.0,0.0
1664629263085,-0.09667969,0.34277344,0.35742188,-33.46875,152.40625,131.875,0.0,0.0,0.0
1664629263113,-1.9863281,0.078125,-0.35742188,-32.0625,175.40625,146.46875,0.0,0.0,0.0
1664629263175,-0.97753906,-0.09277344,0.02734375,2.09375,37.90625,15.1875,0.0,0.0,0.0
1664629263209,-0.08886719,0.359375,0.0234375,-29.5625,51.34375,71.5,0.0,0.0,0.0
1664629263232,-1.3164062,0.171875,-0.31152344,-30.96875,43.03125,97.4375,0.0,0.0,0.0
1664629263292,-1.1015625,-0.19824219,-0.17089844,-0.8125,18.5625,60.78125,0.0,0.0,0.0
1664629263324,-0.7529297,-0.033203125,-0.061523438,16.8125,25.75,51.6875,0.0,0.0,0.0
1664629263353,-0.89160156,0.14648438,0.053710938,77.46875,-12.6875,49.21875,0.0,0.0,0.0
1664629263412,-0.921875,0.23535156,-0.046875,47.6875,-11.53125,39.15625,0.0,0.0,0.0
1664629263444,-1.0078125,0.047851562,-0.051757812,18.9375,3.40625,44.71875,-118.625,7.5625,-144.9375
1664629263477,-1.0527344,-0.0068359375,0.028320312,22.90625,-5.25,22.5625,0.0,0.0,0.0
1664629263566,-0.9873047,0.015625,-0.09277344,12.71875,17.875,5.40625,0.0,0.0,0.0
1664629263570,-1.2480469,0.19140625,-0.0126953125,18.40625,35.84375,24.09375,0.0,0.0,0.0
1664629263594,-1.3994141,0.3623047,0.1796875,28.03125,27.09375,38.3125,0.0,0.0,0.0
1664629263652,-1.4052734,-0.059570312,0.111328125,5.34375,-26.375,23.65625,0.0,0.0,0.0
1664629263684,-1.2050781,0.16992188,-0.020507812,17.0625,-93.625,-42.0,0.0,0.0,0.0
1664629263714,-1.1376953,0.6611328,0.21582031,-2.15625,-60.90625,-42.375,0.0,0.0,0.0
1664629263774,-0.9248047,0.0126953125,0.13183594,-150.65625,-61.28125,-61.59375,0.0,0.0,0.0
1664629263804,-1.1123047,-0.15527344,-0.28515625,-156.84375,-5.375,-105.8125,0.0,0.0,0.0
1664629263834,-1.1484375,0.2529297,-0.3154297,-20.21875,37.21875,-120.125,0.0,0.0,0.0
1664629263895,-1.2207031,0.13183594,0.8339844,75.28125,-34.53125,-113.3125,0.0,0.0,0.0
1664629263925,-0.6425781,0.30664062,-0.2265625,38.1875,-83.4375,-130.5625,0.0,0.0,0.0
1664629263983,-0.74609375,-0.107421875,0.1484375,7.53125,-44.90625,-110.5,-111.3125,-11.5,-135.1875
1664629264013,-0.75683594,-0.13867188,0.16308594,68.875,-84.09375,-80.90625,0.0,0.0,0.0
1664629264044,-0.6796875,0.0078125,0.057617188,74.375,-60.78125,-15.28125,0.0,0.0,0.0
1664629264074,-0.43652344,0.123046875,0.17480469,5.84375,23.0625,49.59375,0.0,0.0,0.0
1664629264134,-0.11816406,0.16210938,0.45996094,-49.59375,124.21875,152.75,0.0,0.0,0.0
1664629264167,-1.9863281,0.24804688,0.61035156,-50.5625,144.15625,142.0,0.0,0.0,0.0
1664629264199,-0.4404297,0.14550781,0.16308594,-4.59375,53.84375,13.90625,0.0,0.0,0.0
1664629264254,-0.28222656,0.1796875,-0.12792969,-49.78125,82.75,107.21875,0.0,0.0,0.0
1664629264284,-1.8808594,-0.091796875,-0.3642578,10.21875,65.90625,101.125,0.0,0.0,0.0
1664629264313,-0.94140625,-0.11425781,-0.10449219,44.09375,14.84375,49.46875,0.0,0.0,0.0
1664629264373,-0.60839844,0.26757812,0.01171875,37.9375,19.59375,42.15625,0.0,0.0,0.0
1664629264403,-0.8095703,0.3251953,-0.11035156,44.84375,-12.03125,44.65625,0.0,0.0,0.0
1664629264433,-0.8105469,0.1953125,-0.018554688,0.6875,8.0625,49.0625,-118.625,5.3125,-139.5625
1664629264494,-1.0498047,-0.056640625,-0.064453125,5.40625,0.125,42.9375,0.0,0.0,0.0
1664629264525,-1.0048828,-0.09472656,0.0078125,12.90625,-0.59375,24.5625,0.0,0.0,0.0
1664629264552,-1.1894531,-0.021484375,-0.056640625,23.78125,9.15625,6.15625,0.0,0.0,0.0
1664629264616,-1.3857422,0.21875,0.07324219,7.78125,24.78125,11.75,0.0,0.0,0.0
1664629264648,-1.1855469,0.19726562,0.16210938,-5.21875,9.9375,3.46875,0.0,0.0,0.0
1664629264674,-1.3515625,0.06640625,0.10644531,-3.5,-43.6875,1.375,0.0,0.0,0.0
1664629264734,-1.0878906,0.20703125,0.052734375,3.5,-63.59375,-32.0,0.0,0.0,0.0
1664629264773,-1.0351562,0.19042969,0.16308594,-4.59375,-47.46875,-46.15625,0.0,0.0,0.0
1664629264797,-1.0488281,0.032226562,-0.08203125,-86.6875,-37.90625,-69.40625,0.0,0.0,0.0
1664629264852,-1.1601562,0.44140625,0.0234375,-112.03125,18.1875,-103.34375,0.0,0.0,0.0
1664629264887,-0.9550781,0.43359375,-0.095703125,2.71875,-13.90625,-94.6875,0.0,0.0,0.0
1664629264914,-1.1875,-0.14550781,0.59277344,2.40625,-18.625,-86.3125,0.0,0.0,0.0
1664629264975,-0.94628906,0.06347656,-0.19433594,69.84375,-74.9375,-115.375,-110.875,-5.0625,-134.0
1664629265005,-0.7402344,0.16894531,0.3359375,30.25,-87.03125,-139.5,0.0,0.0,0.0
1664629265034,-0.7089844,0.013671875,0.10644531,33.21875,-75.9375,-72.53125,0.0,0.0,0.0
1664629265094,-0.6826172,-0.0068359375,0.14746094,67.28125,-67.3125,-14.125,0.0,0.0,0.0
1664629265125,-0.37597656,0.009765625,-9.765625E-4,10.65625,24.96875,49.21875,0.0,0.0,0.0
1664629265153,-0.27734375,-0.01953125,0.6298828,-69.3125,117.125,154.75,0.0,0.0,0.0
1664629265213,-1.9863281,0.022460938,0.55859375,-17.125,161.5,109.78125,0.0,0.0,0.0
1664629265257,-0.78027344,0.013671875,-0.01953125,24.375,46.875,19.25,0.0,0.0,0.0
1664629265273,-0.39453125,0.37402344,-0.080078125,-28.28125,72.15625,68.34375,0.0,0.0,0.0
1664629265334,-1.3759766,0.20507812,-0.13183594,-22.625,58.53125,88.46875,0.0,0.0,0.0
1664629265365,-1.1074219,-0.103515625,-0.09667969,-7.21875,16.125,58.3125,0.0,0.0,0.0
1664629265396,-0.7714844,0.08691406,-0.046875,-12.90625,27.65625,50.625,0.0,0.0,0.0
1664629265453,-0.7246094,0.020507812,-0.11035156,56.3125,-4.34375,56.96875,-113.5625,5.5625,-136.25
1664629265483,-0.8857422,0.033203125,-0.09863281,28.21875,-11.34375,39.59375,0.0,0.0,0.0
1664629265513,-0.8623047,0.15917969,0.018554688,31.9375,-22.03125,32.03125,0.0,0.0,0.0
1664629265573,-0.9394531,-0.056640625,-0.07714844,1.1875,9.9375,13.53125,0.0,0.0,0.0
1664629265603,-1.0761719,-0.0029296875,-0.0126953125,3.3125,19.59375,8.46875,0.0,0.0,0.0
1664629265633,-1.3925781,0.16503906,0.13085938,13.09375,13.96875,10.96875,0.0,0.0,0.0
1664629265692,-1.2802734,0.17382812,0.20410156,24.875,29.125,24.34375,0.0,0.0,0.0
1664629265725,-1.4462891,0.12792969,0.0107421875,-4.71875,-20.75,12.90625,0.0,0.0,0.0
1664629265752,-1.1621094,0.12109375,-0.05078125,8.9375,-41.875,-11.5,0.0,0.0,0.0
1664629265843,-0.9638672,0.36621094,0.1796875,15.65625,-65.84375,-31.59375,0.0,0.0,0.0
1664629265847,-1.0097656,-0.053710938,0.13574219,-1.96875,-88.5,-51.46875,0.0,0.0,0.0
1664629265873,-1.2421875,0.0859375,-0.07421875,-124.375,-53.90625,-116.21875,0.0,0.0,0.0
1664629265933,-1.109375,0.6689453,-0.044921875,-118.9375,31.96875,-120.9375,0.0,0.0,0.0
1664629265968,-0.91308594,0.4013672,0.16699219,-57.40625,-8.59375,-120.3125,-108.3125,2.4375,-134.0
1664629265993,-0.9423828,-0.05078125,0.3720703,-52.28125,-16.96875,-122.9375,0.0,0.0,0.0
1664629266052,-0.94628906,-0.11035156,-0.040039062,53.25,-105.96875,-135.875,0.0,0.0,0.0
1664629266084,-0.7705078,0.022460938,0.20996094,72.59375,-100.71875,-115.125,0.0,0.0,0.0
1664629266114,-0.65527344,-0.19140625,0.12109375,66.5625,-82.40625,-62.28125,0.0,0.0,0.0
1664629266174,-0.61621094,-0.078125,0.20898438,60.875,-46.75,-4.53125,0.0,0.0,0.0
1664629266206,-0.43066406,-0.09472656,0.19335938,9.84375,18.9375,57.53125,0.0,0.0,0.0
1664629266235,-0.67871094,-0.3828125,0.5566406,-100.0,77.09375,113.1875,0.0,0.0,0.0
1664629266294,-1.4746094,-0.115234375,0.6503906,-108.4375,151.5625,82.75,0.0,0.0,0.0
1664629266324,-1.1044922,-0.5283203,0.17285156,-30.0625,103.875,33.90625,0.0,0.0,0.0
1664629266353,-0.80859375,0.08203125,-0.1328125,-10.40625,68.125,105.3125,0.0,0.0,0.0
1664629266415,-1.3535156,0.19238281,0.03515625,32.0625,41.875,80.25,0.0,0.0,0.0
1664629266446,-0.99609375,0.24902344,-0.0048828125,44.78125,8.71875,60.65625,-106.375,4.375,-135.5
1664629266473,-0.76464844,0.25390625,-0.005859375,-4.96875,28.9375,67.59375,0.0,0.0,0.0
