# Sensor type: Thingy
# Activity type: Sitting bent forward
# Activity code: 4
# Subject id: s1918275
# Notes: 
timestamp,accel_x,accel_y,accel_z,gyro_x,gyro_y,gyro_z,mag_x,mag_y,mag_z
1664627583265,-0.1875,-0.27929688,0.92285156,-0.09375,-1.53125,1.59375,0.0,0.0,0.0
1664627583293,-0.18847656,-0.2763672,0.96484375,0.28125,0.15625,2.1875,0.0,0.0,0.0
1664627583325,-0.19628906,-0.27148438,0.92578125,-0.59375,-0.0625,2.0,0.0,0.0,0.0
1664627583385,-0.1875,-0.28125,0.95214844,-0.34375,-1.90625,0.84375,0.0,0.0,0.0
1664627583414,-0.20117188,-0.25878906,0.9550781,0.09375,1.03125,1.71875,0.0,0.0,0.0
1664627583473,-0.21582031,-0.2685547,0.921875,-1.0,-1.28125,0.65625,0.0,0.0,0.0
1664627583504,-0.19335938,-0.2861328,0.9609375,0.875,-1.0625,0.125,0.0,0.0,0.0
1664627583533,-0.18847656,-0.28222656,0.9345703,-0.40625,-0.625,0.0,-90.4375,-16.75,-96.1875
1664627583567,-0.19335938,-0.265625,0.9238281,0.34375,-0.3125,-1.65625,0.0,0.0,0.0
1664627583624,-0.18164062,-0.2607422,0.9501953,0.09375,-0.9375,-2.1875,0.0,0.0,0.0
1664627583654,-0.17871094,-0.265625,0.9482422,0.09375,-0.25,-1.28125,0.0,0.0,0.0
1664627583684,-0.17089844,-0.2705078,0.92578125,-0.40625,-0.4375,-1.28125,0.0,0.0,0.0
1664627583743,-0.1953125,-0.26464844,0.93847656,-0.59375,1.8125,-0.78125,0.0,0.0,0.0
1664627583774,-0.18945312,-0.26953125,0.9482422,0.15625,-0.0625,0.125,0.0,0.0,0.0
1664627583806,-0.19140625,-0.27441406,0.94433594,-0.21875,1.5,-0.3125,0.0,0.0,0.0
1664627583865,-0.1953125,-0.265625,0.9433594,0.5625,-0.875,0.5625,0.0,0.0,0.0
1664627583893,-0.19042969,-0.27441406,0.9453125,1.3125,-1.65625,1.09375,0.0,0.0,0.0
1664627583923,-0.15527344,-0.2861328,0.9433594,0.46875,-0.75,1.03125,0.0,0.0,0.0
1664627583986,-0.1875,-0.27929688,0.9501953,-0.40625,1.40625,-1.21875,0.0,0.0,0.0
1664627584016,-0.18359375,-0.26464844,0.94921875,-0.71875,1.625,-3.46875,-91.375,-15.125,-93.9375
1664627584045,-0.1953125,-0.27246094,0.9394531,-0.59375,1.5625,-4.21875,0.0,0.0,0.0
1664627584105,-0.20996094,-0.2763672,0.9472656,-0.03125,0.84375,-4.40625,0.0,0.0,0.0
1664627584134,-0.20019531,-0.27246094,0.9404297,0.8125,0.0,-3.71875,0.0,0.0,0.0
1664627584162,-0.18652344,-0.26171875,0.93847656,0.875,-0.6875,-1.96875,0.0,0.0,0.0
1664627584225,-0.17578125,-0.25,0.9501953,0.6875,-1.21875,-0.5625,0.0,0.0,0.0
1664627584253,-0.17675781,-0.2626953,0.94628906,0.875,0.0,0.375,0.0,0.0,0.0
1664627584283,-0.18066406,-0.265625,0.9394531,-0.09375,0.96875,0.96875,0.0,0.0,0.0
1664627584344,-0.19433594,-0.25878906,0.9326172,-0.09375,1.34375,1.28125,0.0,0.0,0.0
1664627584374,-0.19921875,-0.2734375,0.9394531,-0.09375,-0.125,0.71875,0.0,0.0,0.0
1664627584403,-0.203125,-0.2783203,0.9472656,0.34375,0.21875,0.125,0.0,0.0,0.0
1664627584466,-0.19042969,-0.26757812,0.9326172,0.21875,-0.5,-0.84375,0.0,0.0,0.0
1664627584494,-0.17871094,-0.27929688,0.93066406,0.21875,-0.625,-1.21875,0.0,0.0,0.0
1664627584525,-0.1875,-0.2705078,0.9501953,0.09375,-0.5625,-0.96875,-88.1875,-15.5625,-94.6875
1664627584586,-0.18652344,-0.2705078,0.9423828,-0.15625,0.125,-0.71875,0.0,0.0,0.0
1664627584619,-0.19238281,-0.26464844,0.9394531,0.09375,0.46875,-0.65625,0.0,0.0,0.0
1664627584646,-0.1875,-0.26953125,0.93652344,0.28125,0.15625,-0.0625,0.0,0.0,0.0
1664627584703,-0.18945312,-0.2578125,0.9248047,-0.03125,0.125,0.3125,0.0,0.0,0.0
1664627584735,-0.1875,-0.2685547,0.95996094,0.34375,-0.1875,0.125,0.0,0.0,0.0
1664627584765,-0.18847656,-0.265625,0.9355469,0.15625,-0.0625,0.125,0.0,0.0,0.0
1664627584822,-0.19238281,-0.2734375,0.9326172,0.03125,-0.3125,0.125,0.0,0.0,0.0
1664627584853,-0.18164062,-0.27441406,0.9433594,0.09375,0.125,0.3125,0.0,0.0,0.0
1664627584887,-0.18164062,-0.26757812,0.9238281,0.46875,0.53125,0.25,0.0,0.0,0.0
1664627584945,-0.18847656,-0.26367188,0.9511719,-0.34375,0.46875,0.0625,0.0,0.0,0.0
1664627584978,-0.19433594,-0.25878906,0.93847656,-0.34375,0.59375,0.1875,0.0,0.0,0.0
1664627585003,-0.20117188,-0.26757812,0.9394531,0.09375,-0.5625,-0.1875,-90.0,-17.1875,-95.4375
1664627585126,-0.19042969,-0.27539062,0.9394531,0.34375,-0.1875,-0.5,0.0,0.0,0.0
1664627585131,-0.18164062,-0.27441406,0.92871094,0.15625,-0.125,-0.4375,0.0,0.0,0.0
1664627585135,-0.18261719,-0.26757812,0.9472656,0.03125,0.125,-0.0625,0.0,0.0,0.0
1664627585182,-0.18945312,-0.27148438,0.93847656,-0.03125,0.28125,0.625,0.0,0.0,0.0
1664627585211,-0.19628906,-0.2626953,0.9375,-0.03125,0.21875,0.5625,0.0,0.0,0.0
1664627585244,-0.19335938,-0.2685547,0.95703125,0.34375,0.15625,0.0625,0.0,0.0,0.0
1664627585305,-0.18457031,-0.26660156,0.9482422,0.15625,0.28125,-0.25,0.0,0.0,0.0
1664627585334,-0.18945312,-0.2763672,0.9404297,0.09375,-0.125,-0.4375,0.0,0.0,0.0
1664627585366,-0.1796875,-0.26660156,0.9296875,0.28125,-0.125,-0.375,0.0,0.0,0.0
1664627585422,-0.18554688,-0.26660156,0.953125,-0.40625,-0.0625,-0.25,0.0,0.0,0.0
1664627585452,-0.19042969,-0.27441406,0.9423828,0.15625,0.15625,0.1875,0.0,0.0,0.0
1664627585483,-0.19238281,-0.26953125,0.9375,0.09375,0.40625,0.0,0.0,0.0,0.0
1664627585547,-0.1875,-0.2685547,0.9404297,-0.03125,0.0625,-0.125,-90.3125,-16.9375,-95.0
1664627585574,-0.19238281,-0.2705078,0.9345703,-0.21875,0.125,-0.125,0.0,0.0,0.0
1664627585603,-0.19238281,-0.25683594,0.9326172,0.21875,0.0,-0.71875,0.0,0.0,0.0
1664627585664,-0.18261719,-0.27734375,0.9433594,0.46875,-0.0625,-1.09375,0.0,0.0,0.0
1664627585696,-0.18945312,-0.28125,0.9404297,-0.09375,0.0,-0.78125,0.0,0.0,0.0
1664627585754,-0.18164062,-0.2705078,0.9375,0.28125,0.0625,-0.65625,0.0,0.0,0.0
1664627585783,-0.19042969,-0.25878906,0.9394531,0.03125,-0.1875,-0.5,0.0,0.0,0.0
1664627585814,-0.18457031,-0.2685547,0.9453125,0.46875,0.125,-0.65625,0.0,0.0,0.0
1664627585847,-0.19042969,-0.2763672,0.94140625,0.40625,-0.125,-0.65625,0.0,0.0,0.0
1664627585906,-0.17773438,-0.27246094,0.94921875,0.28125,0.125,-0.625,0.0,0.0,0.0
1664627585934,-0.18261719,-0.27441406,0.94140625,0.28125,0.21875,-0.125,0.0,0.0,0.0
1664627585964,-0.19042969,-0.2607422,0.93847656,0.15625,0.34375,-0.1875,0.0,0.0,0.0
1664627586023,-0.18945312,-0.2685547,0.9453125,0.34375,-0.125,-0.625,-87.875,-15.875,-94.375
1664627586054,-0.18652344,-0.2626953,0.9423828,0.40625,0.40625,-0.4375,0.0,0.0,0.0
1664627586083,-0.18359375,-0.25683594,0.9345703,0.53125,0.96875,-0.96875,0.0,0.0,0.0
1664627586145,-0.18261719,-0.27734375,0.9296875,0.21875,0.40625,-0.78125,0.0,0.0,0.0
1664627586176,-0.17285156,-0.2705078,0.9375,0.15625,0.84375,-0.3125,0.0,0.0,0.0
1664627586204,-0.18847656,-0.26171875,0.92871094,0.34375,1.03125,-0.125,0.0,0.0,0.0
1664627586265,-0.19042969,-0.26953125,0.9511719,0.6875,0.59375,-0.5625,0.0,0.0,0.0
1664627586293,-0.20214844,-0.26660156,0.9472656,0.46875,0.53125,-0.375,0.0,0.0,0.0
1664627586326,-0.18066406,-0.2705078,0.9482422,0.34375,0.15625,-0.4375,0.0,0.0,0.0
1664627586382,-0.19238281,-0.2607422,0.9472656,-0.03125,0.53125,-0.71875,0.0,0.0,0.0
1664627586415,-0.19140625,-0.2626953,0.93066406,0.28125,0.0625,-0.375,0.0,0.0,0.0
1664627586446,-0.18066406,-0.2705078,0.9589844,1.90625,0.65625,0.3125,0.0,0.0,0.0
1664627586503,-0.19335938,-0.2685547,0.9316406,1.96875,2.4375,0.0,0.0,0.0,0.0
1664627586533,-0.19726562,-0.25390625,0.9296875,-1.375,1.4375,-1.21875,-89.875,-16.4375,-94.5625
1664627586564,-0.18945312,-0.26660156,0.9472656,2.90625,-0.0625,0.65625,0.0,0.0,0.0
1664627586625,-0.18554688,-0.27539062,0.9238281,1.4375,-1.53125,2.3125,0.0,0.0,0.0
1664627586655,-0.17675781,-0.25976562,0.96191406,1.5625,0.15625,0.78125,0.0,0.0,0.0
1664627586685,-0.19628906,-0.26757812,0.9433594,0.40625,1.5625,0.625,0.0,0.0,0.0
1664627586744,-0.21386719,-0.25195312,0.9326172,-0.15625,2.4375,-0.4375,0.0,0.0,0.0
1664627586775,-0.20898438,-0.23925781,0.93847656,-0.03125,0.0625,-0.1875,0.0,0.0,0.0
1664627586804,-0.203125,-0.25,0.94140625,0.21875,-0.5625,0.0625,0.0,0.0,0.0
1664627586835,-0.19726562,-0.2607422,0.94140625,-0.09375,-0.6875,-0.96875,0.0,0.0,0.0
1664627586896,-0.19335938,-0.25390625,0.95214844,-0.28125,-0.75,-1.40625,0.0,0.0,0.0
1664627586925,-0.17871094,-0.25683594,0.9423828,-0.65625,-0.25,-1.21875,0.0,0.0,0.0
1664627586953,-0.18359375,-0.25683594,0.9375,-0.875,0.28125,-1.03125,0.0,0.0,0.0
1664627587013,-0.18066406,-0.25976562,0.9453125,-0.53125,0.15625,-0.1875,-88.9375,-17.1875,-95.75
1664627587047,-0.18847656,-0.27148438,0.9423828,-0.8125,1.09375,0.71875,0.0,0.0,0.0
1664627587074,-0.20898438,-0.2529297,0.9482422,-0.53125,0.46875,0.5,0.0,0.0,0.0
1664627587134,-0.20800781,-0.2607422,0.9345703,0.03125,-0.8125,0.65625,0.0,0.0,0.0
1664627587163,-0.19921875,-0.2607422,0.9511719,-0.09375,-0.875,0.3125,0.0,0.0,0.0
1664627587193,-0.18652344,-0.26367188,0.9345703,0.21875,-1.96875,0.0,0.0,0.0,0.0
1664627587253,-0.18261719,-0.25976562,0.9589844,-0.28125,-0.5625,-0.96875,0.0,0.0,0.0
1664627587284,-0.18554688,-0.25683594,0.9394531,-0.53125,0.125,-0.5625,0.0,0.0,0.0
1664627587314,-0.18066406,-0.27539062,0.9511719,-0.9375,0.65625,-0.25,0.0,0.0,0.0
1664627587375,-0.203125,-0.2626953,0.93652344,-0.59375,0.15625,0.0,0.0,0.0,0.0
1664627587407,-0.19238281,-0.26464844,0.9248047,-0.34375,-0.0625,0.3125,0.0,0.0,0.0
1664627587432,-0.20117188,-0.27246094,0.9511719,0.15625,-0.1875,0.125,0.0,0.0,0.0
1664627587494,-0.18847656,-0.2705078,0.9589844,0.03125,-0.75,-0.4375,0.0,0.0,0.0
1664627587524,-0.18164062,-0.2763672,0.9501953,0.09375,0.0625,-0.3125,-90.4375,-17.0625,-94.875
1664627587554,-0.18652344,-0.2685547,0.94433594,0.09375,0.15625,-0.125,0.0,0.0,0.0
1664627587614,-0.18652344,-0.27148438,0.94433594,-0.03125,0.28125,-0.125,0.0,0.0,0.0
1664627587643,-0.19140625,-0.265625,0.94921875,0.15625,0.28125,0.0,0.0,0.0,0.0
1664627587675,-0.19140625,-0.26660156,0.93359375,0.34375,0.15625,0.0,0.0,0.0,0.0
1664627587733,-0.19042969,-0.265625,0.94433594,0.21875,0.65625,-0.25,0.0,0.0,0.0
1664627587764,-0.19140625,-0.25976562,0.9326172,-0.34375,0.40625,-0.3125,0.0,0.0,0.0
1664627587794,-0.19042969,-0.25585938,0.953125,-0.03125,0.21875,-0.125,0.0,0.0,0.0
1664627587853,-0.20214844,-0.26367188,0.94921875,-0.03125,0.0,-0.125,0.0,0.0,0.0
1664627587883,-0.19140625,-0.27441406,0.93652344,0.03125,0.34375,-0.125,0.0,0.0,0.0
1664627587913,-0.18554688,-0.2705078,0.94433594,-0.03125,0.34375,0.125,0.0,0.0,0.0
1664627587973,-0.1796875,-0.265625,0.9326172,-0.03125,0.40625,0.1875,0.0,0.0,0.0
1664627588047,-0.19433594,-0.25390625,0.9550781,-0.46875,0.0625,-0.125,-89.5625,-15.125,-96.0625
1664627588064,-0.20019531,-0.26757812,0.9550781,-0.28125,0.125,-0.5,0.0,0.0,0.0
1664627588093,-0.1875,-0.26757812,0.9404297,0.21875,-0.625,-1.09375,0.0,0.0,0.0
1664627588125,-0.19335938,-0.2685547,0.94140625,0.40625,0.125,-0.84375,0.0,0.0,0.0
1664627588156,-0.18945312,-0.27246094,0.9316406,0.03125,0.34375,-0.5,0.0,0.0,0.0
1664627588217,-0.19042969,-0.27441406,0.9482422,-0.21875,0.15625,0.0625,0.0,0.0,0.0
1664627588245,-0.1953125,-0.2626953,0.93652344,-0.03125,0.15625,-0.1875,0.0,0.0,0.0
1664627588277,-0.19238281,-0.26464844,0.9423828,0.53125,0.125,-0.625,0.0,0.0,0.0
1664627588334,-0.18652344,-0.2626953,0.93847656,0.5625,0.0,-0.78125,0.0,0.0,0.0
1664627588365,-0.17773438,-0.26464844,0.9404297,0.09375,0.0,-0.625,0.0,0.0,0.0
1664627588393,-0.18066406,-0.2734375,0.94140625,0.09375,0.0625,-0.625,0.0,0.0,0.0
1664627588454,-0.19042969,-0.2548828,0.9316406,0.09375,0.15625,-0.375,0.0,0.0,0.0
1664627588483,-0.19921875,-0.2626953,0.9501953,-0.03125,0.15625,-0.625,0.0,0.0,0.0
1664627588513,-0.19726562,-0.26171875,0.9375,-0.03125,0.65625,-0.0625,-91.0625,-16.9375,-94.375
1664627588574,-0.19042969,-0.2705078,0.9375,0.03125,0.125,-0.5625,0.0,0.0,0.0
1664627588606,-0.18652344,-0.27148438,0.9375,-0.03125,0.15625,-0.25,0.0,0.0,0.0
1664627588633,-0.1953125,-0.26660156,0.953125,-0.21875,-0.0625,-0.375,0.0,0.0,0.0
1664627588692,-0.19140625,-0.2685547,0.9375,0.09375,0.34375,-0.5,0.0,0.0,0.0
1664627588724,-0.19238281,-0.25683594,0.93847656,0.46875,-0.1875,-0.5625,0.0,0.0,0.0
1664627588753,-0.18945312,-0.25976562,0.9472656,0.03125,0.28125,-0.4375,0.0,0.0,0.0
1664627588814,-0.18652344,-0.265625,0.9296875,0.21875,0.21875,-0.125,0.0,0.0,0.0
1664627588854,-0.19140625,-0.2626953,0.94628906,-0.09375,0.0,-0.5,0.0,0.0,0.0
1664627588885,-0.18847656,-0.26171875,0.93066406,-0.15625,0.15625,-0.4375,0.0,0.0,0.0
1664627588934,-0.1953125,-0.27148438,0.9433594,0.03125,0.0625,-0.4375,0.0,0.0,0.0
1664627588976,-0.19433594,-0.265625,0.9423828,0.15625,-0.3125,-0.4375,0.0,0.0,0.0
1664627588998,-0.1875,-0.27148438,0.94628906,0.21875,0.0625,-0.25,-89.875,-16.75,-94.5625
1664627589053,-0.1875,-0.25878906,0.9472656,-0.03125,0.34375,-0.25,0.0,0.0,0.0
1664627589083,-0.18261719,-0.26757812,0.9433594,0.03125,0.21875,-0.1875,0.0,0.0,0.0
1664627589113,-0.19726562,-0.25976562,0.9453125,0.03125,0.34375,-0.3125,0.0,0.0,0.0
1664627589172,-0.18945312,-0.26464844,0.9345703,-0.09375,0.28125,-0.1875,0.0,0.0,0.0
1664627589203,-0.19628906,-0.26953125,0.93066406,-0.28125,0.40625,-0.25,0.0,0.0,0.0
1664627589236,-0.19042969,-0.27148438,0.94628906,0.40625,-0.125,-0.3125,0.0,0.0,0.0
1664627589293,-0.1875,-0.26660156,0.93066406,-0.03125,0.125,-0.125,0.0,0.0,0.0
1664627589327,-0.19824219,-0.26464844,0.9355469,-0.03125,0.40625,0.0,0.0,0.0,0.0
1664627589354,-0.18945312,-0.26660156,0.9423828,0.21875,-0.25,-0.25,0.0,0.0,0.0
1664627589416,-0.19335938,-0.26367188,0.94140625,0.03125,0.28125,-0.125,0.0,0.0,0.0
1664627589446,-0.1953125,-0.25878906,0.9404297,0.28125,0.0625,0.1875,0.0,0.0,0.0
1664627589478,-0.18847656,-0.26660156,0.95214844,-0.03125,-0.0625,0.1875,0.0,0.0,0.0
1664627589534,-0.18945312,-0.2607422,0.953125,0.28125,0.125,0.3125,-89.125,-16.75,-94.25
1664627589566,-0.19335938,-0.2626953,0.94921875,0.28125,0.21875,0.1875,0.0,0.0,0.0
1664627589598,-0.1875,-0.26464844,0.9433594,0.09375,0.28125,0.0625,0.0,0.0,0.0
1664627589655,-0.19238281,-0.25878906,0.93652344,0.15625,-0.0625,-0.0625,0.0,0.0,0.0
1664627589686,-0.19140625,-0.2626953,0.9433594,-0.03125,0.125,0.125,0.0,0.0,0.0
1664627589716,-0.1875,-0.25683594,0.9501953,-0.09375,0.0,-0.0625,0.0,0.0,0.0
1664627589774,-0.19628906,-0.265625,0.9404297,0.21875,-0.0625,-0.0625,0.0,0.0,0.0
1664627589804,-0.19335938,-0.26953125,0.94921875,-0.15625,-0.125,-0.0625,0.0,0.0,0.0
1664627589833,-0.18945312,-0.2685547,0.9472656,0.03125,0.34375,0.375,0.0,0.0,0.0
1664627589893,-0.19433594,-0.26953125,0.9267578,0.09375,0.28125,0.0625,0.0,0.0,0.0
1664627589924,-0.19824219,-0.26171875,0.9453125,-0.09375,0.21875,0.0,0.0,0.0,0.0
1664627589954,-0.20507812,-0.26464844,0.94628906,-0.28125,0.15625,0.0,0.0,0.0,0.0
1664627590013,-0.19921875,-0.26171875,0.9326172,0.09375,0.21875,-0.5,-89.875,-15.6875,-95.875
1664627590045,-0.1953125,-0.26660156,0.95214844,0.21875,0.0,-0.84375,0.0,0.0,0.0
1664627590074,-0.18457031,-0.26660156,0.9472656,-0.21875,-0.125,-0.78125,0.0,0.0,0.0
1664627590134,-0.19042969,-0.27539062,0.94628906,0.34375,-0.125,-0.625,0.0,0.0,0.0
1664627590163,-0.19140625,-0.26464844,0.94628906,-0.09375,-0.0625,-0.71875,0.0,0.0,0.0
1664627590196,-0.18359375,-0.27148438,0.9345703,-0.03125,0.21875,-0.5,0.0,0.0,0.0
1664627590254,-0.18847656,-0.26660156,0.9472656,0.21875,0.21875,-0.78125,0.0,0.0,0.0
1664627590316,-0.1875,-0.26171875,0.9472656,0.34375,0.0625,-1.09375,0.0,0.0,0.0
1664627590320,-0.18945312,-0.265625,0.9453125,0.0625,-0.09375,-0.8125,0.0,0.0,0.0
1664627590373,-0.19628906,-0.26953125,0.9355469,-0.09375,-0.09375,-0.625,0.0,0.0,0.0
1664627590404,-0.19433594,-0.25683594,0.9375,0.0,-0.1875,-0.53125,0.0,0.0,0.0
1664627590436,-0.1875,-0.25878906,0.9394531,0.0625,-0.375,-0.21875,0.0,0.0,0.0
1664627590494,-0.18652344,-0.2705078,0.94921875,-0.09375,-0.03125,0.03125,0.0,0.0,0.0
1664627590528,-0.18652344,-0.26660156,0.93652344,-0.09375,-0.03125,-0.21875,-91.0625,-14.8125,-94.6875
1664627590553,-0.18652344,-0.2626953,0.9355469,0.0,0.03125,-0.34375,0.0,0.0,0.0
1664627590614,-0.19238281,-0.26171875,0.94921875,-0.15625,0.09375,-0.15625,0.0,0.0,0.0
1664627590665,-0.19726562,-0.26953125,0.93066406,-0.15625,0.15625,-0.15625,0.0,0.0,0.0
1664627590672,-0.18847656,-0.26367188,0.9296875,0.1875,-0.09375,-0.59375,0.0,0.0,0.0
1664627590733,-0.19628906,-0.26660156,0.93066406,0.0625,-0.15625,-0.15625,0.0,0.0,0.0
1664627590764,-0.1953125,-0.2734375,0.94140625,0.0,-0.15625,-0.15625,0.0,0.0,0.0
1664627590793,-0.19140625,-0.2734375,0.9404297,0.125,-0.375,0.03125,0.0,0.0,0.0
1664627590853,-0.18847656,-0.25976562,0.93652344,0.0,0.03125,-0.09375,0.0,0.0,0.0
1664627590883,-0.1875,-0.2607422,0.9326172,-0.09375,0.03125,-0.03125,0.0,0.0,0.0
1664627590913,-0.1953125,-0.2705078,0.9472656,0.0625,0.15625,-0.28125,0.0,0.0,0.0
1664627590972,-0.19433594,-0.2607422,0.9423828,0.0625,-0.15625,-0.21875,0.0,0.0,0.0
1664627591004,-0.18945312,-0.26660156,0.9326172,0.0625,-0.09375,-0.21875,-91.625,-14.6875,-93.8125
1664627591034,-0.18066406,-0.25878906,0.9482422,-0.09375,-0.15625,-0.15625,0.0,0.0,0.0
1664627591096,-0.19628906,-0.27441406,0.94628906,-0.09375,-0.1875,-0.09375,0.0,0.0,0.0
1664627591124,-0.18652344,-0.26464844,0.9345703,-0.09375,-0.1875,-0.09375,0.0,0.0,0.0
1664627591155,-0.18554688,-0.2685547,0.9560547,-0.09375,-0.09375,-0.03125,0.0,0.0,0.0
1664627591215,-0.19238281,-0.26367188,0.9453125,-0.34375,0.40625,0.09375,0.0,0.0,0.0
1664627591246,-0.1875,-0.2734375,0.93359375,-0.09375,0.21875,0.03125,0.0,0.0,0.0
1664627591275,-0.18652344,-0.26367188,0.9394531,0.0,-0.09375,0.03125,0.0,0.0,0.0
1664627591334,-0.19140625,-0.2685547,0.9394531,-0.09375,-0.15625,0.34375,0.0,0.0,0.0
1664627591364,-0.19140625,-0.26953125,0.9482422,0.3125,-0.25,-0.15625,0.0,0.0,0.0
1664627591393,-0.18945312,-0.26171875,0.95214844,0.125,-0.03125,-0.03125,0.0,0.0,0.0
1664627591453,-0.19628906,-0.27246094,0.9345703,0.0,0.09375,0.15625,0.0,0.0,0.0
1664627591485,-0.18945312,-0.26757812,0.92871094,0.0625,-0.1875,0.53125,0.0,0.0,0.0
1664627591513,-0.18554688,-0.2685547,0.94921875,-0.0625,-0.09375,0.46875,-89.5625,-16.625,-94.375
1664627591572,-0.18457031,-0.26660156,0.9404297,-0.09375,0.15625,0.40625,0.0,0.0,0.0
1664627591604,-0.19238281,-0.2685547,0.9511719,-0.21875,0.28125,0.21875,0.0,0.0,0.0
1664627591633,-0.19042969,-0.265625,0.9316406,-0.0625,-0.03125,0.09375,0.0,0.0,0.0
1664627591693,-0.19921875,-0.27441406,0.9345703,0.1875,-0.25,0.28125,0.0,0.0,0.0
1664627591730,-0.18945312,-0.25683594,0.93847656,-0.0625,-0.1875,0.09375,0.0,0.0,0.0
1664627591754,-0.18554688,-0.2685547,0.94140625,0.125,-0.09375,0.03125,0.0,0.0,0.0
1664627591815,-0.1875,-0.26171875,0.94140625,-0.0625,-0.1875,0.21875,0.0,0.0,0.0
1664627591846,-0.18554688,-0.26660156,0.94140625,-0.15625,-0.1875,0.09375,0.0,0.0,0.0
1664627591874,-0.19042969,-0.26953125,0.9501953,-0.09375,0.21875,0.34375,0.0,0.0,0.0
1664627591939,-0.18847656,-0.2705078,0.94433594,-0.09375,0.40625,0.15625,0.0,0.0,0.0
1664627591964,-0.19238281,-0.27539062,0.9355469,0.0,0.21875,0.28125,0.0,0.0,0.0
1664627591993,-0.19433594,-0.27246094,0.94140625,-0.28125,-0.09375,0.28125,-89.375,-15.6875,-96.1875
1664627592053,-0.20117188,-0.2685547,0.9345703,0.0625,0.15625,0.03125,0.0,0.0,0.0
1664627592084,-0.203125,-0.2734375,0.94921875,0.0,-0.3125,-0.53125,0.0,0.0,0.0
1664627592113,-0.18359375,-0.25878906,0.9511719,0.0,-0.1875,-0.15625,0.0,0.0,0.0
1664627592173,-0.18359375,-0.26953125,0.9404297,0.25,-0.1875,0.09375,0.0,0.0,0.0
1664627592205,-0.18847656,-0.265625,0.93847656,-0.0625,-0.09375,-0.21875,0.0,0.0,0.0
1664627592235,-0.19335938,-0.2685547,0.9453125,-0.09375,-0.03125,-0.15625,0.0,0.0,0.0
1664627592293,-0.19726562,-0.26171875,0.9433594,0.125,0.03125,-0.28125,0.0,0.0,0.0
1664627592327,-0.19140625,-0.26757812,0.94433594,0.1875,0.03125,-0.40625,0.0,0.0,0.0
1664627592354,-0.18945312,-0.27246094,0.94433594,-0.0625,-0.09375,-0.34375,0.0,0.0,0.0
1664627592414,-0.19238281,-0.27148438,0.9511719,0.125,-0.25,-0.40625,0.0,0.0,0.0
1664627592446,-0.18847656,-0.26171875,0.94921875,-0.09375,0.09375,-0.15625,0.0,0.0,0.0
1664627592473,-0.18945312,-0.2685547,0.93847656,0.1875,-0.09375,-0.28125,0.0,0.0,0.0
1664627592534,-0.19042969,-0.265625,0.9482422,-0.09375,-0.03125,-0.03125,-92.125,-15.5625,-95.4375
1664627592593,-0.1953125,-0.2685547,0.94140625,-0.0625,0.21875,0.15625,0.0,0.0,0.0
1664627592597,-0.1953125,-0.265625,0.93847656,-0.28125,0.09375,-0.21875,0.0,0.0,0.0
1664627592655,-0.19335938,-0.26464844,0.9423828,0.0625,0.15625,-0.34375,0.0,0.0,0.0
1664627592688,-0.18652344,-0.27246094,0.9355469,-0.34375,0.09375,-0.28125,0.0,0.0,0.0
1664627592714,-0.1875,-0.27148438,0.9482422,-0.0625,0.34375,-0.34375,0.0,0.0,0.0
1664627592777,-0.19628906,-0.26464844,0.95214844,0.1875,-0.5625,-0.34375,0.0,0.0,0.0
1664627592805,-0.18652344,-0.265625,0.94140625,0.0625,-0.8125,-0.40625,0.0,0.0,0.0
1664627592835,-0.18652344,-0.26367188,0.94921875,0.125,-0.03125,-0.34375,0.0,0.0,0.0
1664627592923,-0.18847656,-0.26464844,0.9345703,-0.09375,0.59375,-0.28125,0.0,0.0,0.0
1664627592927,-0.18945312,-0.2734375,0.94140625,-0.46875,0.21875,-0.15625,0.0,0.0,0.0
1664627592955,-0.203125,-0.2734375,0.94140625,0.125,-0.03125,0.09375,0.0,0.0,0.0
1664627593018,-0.19433594,-0.2783203,0.9394531,0.125,-0.09375,-0.09375,-90.125,-15.6875,-95.125
1664627593044,-0.18554688,-0.26464844,0.94628906,0.1875,-0.5,-0.34375,0.0,0.0,0.0
1664627593073,-0.19140625,-0.265625,0.9423828,-0.0625,-0.3125,-0.28125,0.0,0.0,0.0
1664627593134,-0.18457031,-0.26464844,0.95214844,-0.0625,-0.09375,-0.46875,0.0,0.0,0.0
1664627593163,-0.18554688,-0.25585938,0.95410156,-0.21875,0.09375,-0.53125,0.0,0.0,0.0
1664627593194,-0.18652344,-0.2626953,0.9404297,0.0625,-0.09375,-0.28125,0.0,0.0,0.0
1664627593256,-0.18554688,-0.2548828,0.9326172,-0.28125,-0.15625,0.03125,0.0,0.0,0.0
1664627593286,-0.20605469,-0.26757812,0.9433594,-0.28125,0.34375,0.28125,0.0,0.0,0.0
1664627593315,-0.19042969,-0.2783203,0.9355469,-0.28125,0.21875,-0.28125,0.0,0.0,0.0
1664627593374,-0.17773438,-0.27539062,0.93652344,0.3125,0.21875,-0.09375,0.0,0.0,0.0
1664627593403,-0.19238281,-0.27441406,0.9375,0.125,-0.15625,0.15625,0.0,0.0,0.0
1664627593434,-0.1953125,-0.27246094,0.9375,0.125,0.15625,0.15625,0.0,0.0,0.0
1664627593492,-0.19042969,-0.25976562,0.9472656,0.0,-0.25,-0.40625,0.0,0.0,0.0
1664627593524,-0.18457031,-0.26464844,0.94628906,0.0625,-0.15625,-0.8125,-88.0625,-14.6875,-95.875
1664627593554,-0.18652344,-0.26660156,0.9511719,0.0,-0.15625,-0.28125,0.0,0.0,0.0
1664627593615,-0.18554688,-0.26464844,0.9404297,-0.21875,-0.25,0.15625,0.0,0.0,0.0
1664627593644,-0.18164062,-0.265625,0.9394531,-0.28125,-0.03125,0.09375,0.0,0.0,0.0
1664627593674,-0.19042969,-0.27148438,0.93847656,-0.09375,0.03125,-0.09375,0.0,0.0,0.0
1664627593734,-0.18847656,-0.26953125,0.9355469,-0.09375,-0.03125,-0.21875,0.0,0.0,0.0
1664627593764,-0.18847656,-0.265625,0.9296875,0.0625,0.09375,-0.15625,0.0,0.0,0.0
1664627593824,-0.19140625,-0.26660156,0.95996094,0.0625,0.09375,-0.21875,0.0,0.0,0.0
1664627593859,-0.20117188,-0.2685547,0.9482422,-0.15625,0.03125,-0.21875,0.0,0.0,0.0
1664627593884,-0.1875,-0.26660156,0.9453125,-0.09375,-0.03125,-0.28125,0.0,0.0,0.0
1664627593912,-0.19140625,-0.25976562,0.9423828,0.0,-0.25,-0.21875,0.0,0.0,0.0
1664627593974,-0.19140625,-0.26953125,0.9404297,-0.0625,-0.25,0.28125,0.0,0.0,0.0
1664627594005,-0.19628906,-0.26464844,0.94921875,-0.28125,0.46875,0.59375,-88.8125,-16.4375,-94.5625
1664627594035,-0.18457031,-0.2626953,0.9326172,-0.46875,0.53125,0.09375,0.0,0.0,0.0
1664627594093,-0.1875,-0.27246094,0.95410156,-0.09375,0.15625,0.21875,0.0,0.0,0.0
1664627594123,-0.19042969,-0.2705078,0.9394531,-0.28125,-0.03125,0.28125,0.0,0.0,0.0
1664627594156,-0.20214844,-0.2783203,0.9501953,-0.09375,-0.15625,0.09375,0.0,0.0,0.0
1664627594216,-0.18945312,-0.26464844,0.93652344,0.0625,-0.375,-0.03125,0.0,0.0,0.0
1664627594246,-0.19140625,-0.27148438,0.9394531,0.0625,-0.1875,0.21875,0.0,0.0,0.0
1664627594275,-0.18359375,-0.27246094,0.93066406,0.0625,-0.15625,0.40625,0.0,0.0,0.0
1664627594333,-0.20117188,-0.2685547,0.9326172,-0.46875,-0.25,0.65625,0.0,0.0,0.0
1664627594365,-0.18652344,-0.25878906,0.93847656,0.0,-0.5,0.40625,0.0,0.0,0.0
1664627594394,-0.19921875,-0.26757812,0.9394531,-0.40625,0.03125,0.65625,0.0,0.0,0.0
1664627594453,-0.18945312,-0.265625,0.9404297,0.25,-0.03125,0.09375,0.0,0.0,0.0
1664627594483,-0.18945312,-0.2626953,0.94921875,-0.15625,-0.25,0.34375,0.0,0.0,0.0
1664627594513,-0.19335938,-0.2705078,0.9453125,-0.15625,-0.15625,0.21875,-89.5625,-15.875,-95.75
1664627594574,-0.19042969,-0.26953125,0.9472656,-0.15625,-0.3125,0.15625,0.0,0.0,0.0
1664627594620,-0.20117188,-0.27246094,0.9404297,0.0,-0.09375,0.34375,0.0,0.0,0.0
1664627594633,-0.19726562,-0.265625,0.9404297,-0.0625,-0.1875,0.21875,0.0,0.0,0.0
1664627594695,-0.1875,-0.26660156,0.9404297,-0.15625,-0.25,0.34375,0.0,0.0,0.0
1664627594723,-0.1875,-0.26660156,0.94628906,-0.15625,0.03125,0.46875,0.0,0.0,0.0
1664627594755,-0.18652344,-0.27929688,0.9472656,-0.0625,0.21875,0.15625,0.0,0.0,0.0
1664627594815,-0.19726562,-0.27148438,0.94921875,-0.34375,-0.15625,0.28125,0.0,0.0,0.0
1664627594872,-0.18847656,-0.26660156,0.93847656,-0.34375,0.03125,0.15625,0.0,0.0,0.0
1664627594875,-0.19140625,-0.2734375,0.94140625,-0.09375,-0.1875,0.03125,0.0,0.0,0.0
1664627594933,-0.19140625,-0.2607422,0.9316406,0.0625,-0.375,-0.09375,0.0,0.0,0.0
1664627594964,-0.18359375,-0.265625,0.9355469,-0.0625,-0.4375,0.03125,0.0,0.0,0.0
1664627594993,-0.18847656,-0.2705078,0.94628906,-0.15625,-0.1875,-0.09375,-88.5,-16.625,-95.4375
1664627595054,-0.18652344,-0.26757812,0.93652344,-0.15625,-0.09375,-0.03125,0.0,0.0,0.0
1664627595086,-0.18847656,-0.26171875,0.94433594,-0.09375,-0.1875,0.03125,0.0,0.0,0.0
1664627595118,-0.19140625,-0.26660156,0.9355469,0.0,0.03125,-0.34375,0.0,0.0,0.0
1664627595173,-0.19042969,-0.26464844,0.9375,-0.0625,-0.25,-0.34375,0.0,0.0,0.0
1664627595204,-0.17773438,-0.265625,0.93652344,-0.0625,-0.25,-0.53125,0.0,0.0,0.0
1664627595236,-0.1953125,-0.26367188,0.9316406,-0.09375,-0.15625,-0.34375,0.0,0.0,0.0
1664627595293,-0.18945312,-0.26171875,0.9423828,-0.15625,-0.1875,-0.21875,0.0,0.0,0.0
1664627595324,-0.18554688,-0.26953125,0.9394531,-0.0625,-0.375,-0.15625,0.0,0.0,0.0
1664627595354,-0.1953125,-0.2705078,0.953125,-0.34375,-0.1875,-0.03125,0.0,0.0,0.0
1664627595415,-0.18652344,-0.27148438,0.9316406,-0.21875,0.21875,0.09375,0.0,0.0,0.0
1664627595445,-0.18847656,-0.26757812,0.92871094,-0.09375,0.21875,-0.34375,0.0,0.0,0.0
1664627595473,-0.19238281,-0.26953125,0.9404297,-0.09375,-0.03125,-0.09375,0.0,0.0,0.0
1664627595534,-0.18945312,-0.26660156,0.9433594,-0.1875,0.15625,0.0625,-89.875,-15.6875,-94.5625
1664627595564,-0.1953125,-0.26660156,0.9404297,-0.0625,0.03125,-0.1875,0.0,0.0,0.0
1664627595609,-0.19140625,-0.26367188,0.93847656,0.1875,-0.25,-0.3125,0.0,0.0,0.0
1664627595654,-0.18652344,-0.26953125,0.94140625,0.125,0.03125,0.0625,0.0,0.0,0.0
1664627595685,-0.18554688,-0.265625,0.9433594,0.0,-0.03125,0.0625,0.0,0.0,0.0
1664627595715,-0.18457031,-0.26953125,0.9277344,-0.25,-0.125,0.0625,0.0,0.0,0.0
1664627595774,-0.203125,-0.26464844,0.9326172,0.0625,0.09375,-0.0625,0.0,0.0,0.0
1664627595804,-0.19140625,-0.265625,0.9375,-0.25,0.03125,-0.25,0.0,0.0,0.0
1664627595834,-0.18359375,-0.26757812,0.94433594,-0.125,-0.09375,-0.25,0.0,0.0,0.0
1664627595894,-0.18652344,-0.26660156,0.94433594,0.0625,-0.25,-0.1875,0.0,0.0,0.0
1664627595928,-0.18847656,-0.2607422,0.94140625,-0.25,-0.25,-0.125,0.0,0.0,0.0
1664627595952,-0.19726562,-0.2607422,0.9433594,-0.25,-0.125,-0.1875,0.0,0.0,0.0
1664627596015,-0.1875,-0.26171875,0.9345703,0.0,-0.125,0.0,-89.5625,-16.1875,-95.0
1664627596044,-0.18554688,-0.26757812,0.9355469,-0.0625,-0.1875,0.1875,0.0,0.0,0.0
1664627596075,-0.19238281,-0.27246094,0.95214844,0.0,0.21875,0.1875,0.0,0.0,0.0
1664627596139,-0.18457031,-0.27148438,0.94628906,-0.40625,0.40625,0.0,0.0,0.0,0.0
1664627596164,-0.1875,-0.26660156,0.9453125,0.125,0.28125,0.25,0.0,0.0,0.0
1664627596193,-0.1953125,-0.26464844,0.9267578,-0.3125,0.03125,0.0625,0.0,0.0,0.0
1664627596253,-0.20214844,-0.26953125,0.9560547,-0.0625,0.09375,-0.0625,0.0,0.0,0.0
1664627596284,-0.19628906,-0.26757812,0.9501953,0.25,-0.6875,-0.125,0.0,0.0,0.0
1664627596314,-0.18847656,-0.26367188,0.95214844,-0.0625,-0.25,0.125,0.0,0.0,0.0
1664627596373,-0.18359375,-0.2763672,0.9472656,-0.1875,-0.25,0.53125,0.0,0.0,0.0
1664627596407,-0.18457031,-0.2705078,0.9453125,0.0,-0.09375,0.59375,0.0,0.0,0.0
1664627596433,-0.18652344,-0.2685547,0.94921875,-0.0625,-0.09375,0.4375,0.0,0.0,0.0
1664627596493,-0.18652344,-0.2685547,0.94628906,-0.0625,0.03125,0.4375,0.0,0.0,0.0
1664627596523,-0.19238281,-0.2705078,0.9316406,0.1875,0.09375,0.3125,-89.875,-14.6875,-95.625
1664627596556,-0.18847656,-0.2783203,0.9404297,0.1875,0.03125,0.4375,0.0,0.0,0.0
1664627596613,-0.19726562,-0.26464844,0.9345703,-0.25,0.09375,0.25,0.0,0.0,0.0
1664627596648,-0.18652344,-0.2607422,0.94921875,-0.0625,-0.125,0.125,0.0,0.0,0.0
1664627596675,-0.19921875,-0.2685547,0.9375,0.125,-0.125,0.1875,0.0,0.0,0.0
1664627596733,-0.19140625,-0.2607422,0.9404297,-0.0625,-0.3125,0.375,0.0,0.0,0.0
1664627596763,-0.18457031,-0.27246094,0.9394531,-0.0625,-0.03125,0.46875,0.0,0.0,0.0
1664627596795,-0.19042969,-0.27246094,0.9472656,-0.25,0.46875,0.59375,0.0,0.0,0.0
1664627596855,-0.19140625,-0.265625,0.9355469,0.0625,0.46875,0.375,0.0,0.0,0.0
1664627596889,-0.19042969,-0.25683594,0.9423828,-0.40625,-0.03125,0.3125,0.0,0.0,0.0
1664627596915,-0.19628906,-0.2607422,0.9433594,-0.125,0.15625,0.25,0.0,0.0,0.0
1664627597005,-0.19335938,-0.26464844,0.93847656,0.0,-0.25,-0.1875,-90.0,-15.5625,-94.6875
1664627597009,-0.1875,-0.27148438,0.94433594,0.0625,-0.03125,-0.125,0.0,0.0,0.0
1664627597032,-0.18945312,-0.27734375,0.94921875,0.0625,-0.1875,0.1875,0.0,0.0,0.0
1664627597093,-0.18945312,-0.2685547,0.9296875,0.0625,-0.03125,0.25,0.0,0.0,0.0
1664627597155,-0.20019531,-0.26953125,0.9404297,0.0,-0.1875,0.0,0.0,0.0,0.0
1664627597159,-0.19238281,-0.26757812,0.9326172,-0.0625,-0.03125,-0.25,0.0,0.0,0.0
1664627597215,-0.19335938,-0.2626953,0.9433594,0.0,0.09375,-0.4375,0.0,0.0,0.0
1664627597246,-0.18652344,-0.2607422,0.9482422,-0.0625,-0.125,-0.375,0.0,0.0,0.0
1664627597274,-0.18945312,-0.2607422,0.95410156,-0.125,0.21875,0.125,0.0,0.0,0.0
1664627597333,-0.1953125,-0.27929688,0.9433594,-0.1875,0.40625,-0.125,0.0,0.0,0.0
1664627597397,-0.19238281,-0.2578125,0.9472656,0.0,-0.125,-0.3125,0.0,0.0,0.0
1664627597412,-0.19042969,-0.26953125,0.93359375,-0.125,-0.125,-0.0625,0.0,0.0,0.0
1664627597452,-0.19433594,-0.2685547,0.9433594,0.0,0.21875,-0.0625,0.0,0.0,0.0
1664627597486,-0.18359375,-0.2685547,0.9423828,-0.0625,0.03125,-0.375,0.0,0.0,0.0
1664627597514,-0.19335938,-0.2734375,0.9394531,-0.0625,-0.1875,-0.3125,-88.9375,-16.1875,-95.75
1664627597577,-0.19628906,-0.265625,0.9375,-0.34375,-0.125,-0.375,0.0,0.0,0.0
1664627597607,-0.18945312,-0.265625,0.93652344,0.0,0.09375,-0.5,0.0,0.0,0.0
1664627597636,-0.19140625,-0.26171875,0.93066406,0.25,-0.375,-0.625,0.0,0.0,0.0
1664627597694,-0.19726562,-0.2705078,0.94140625,-0.0625,-0.1875,-0.25,0.0,0.0,0.0
1664627597724,-0.19042969,-0.2734375,0.9316406,0.0625,-0.03125,0.0,0.0,0.0,0.0
1664627597753,-0.19628906,-0.27441406,0.94628906,-0.0625,-0.03125,0.0625,0.0,0.0,0.0
1664627597814,-0.18457031,-0.2685547,0.92285156,0.0625,0.09375,-0.1875,0.0,0.0,0.0
1664627597845,-0.19921875,-0.26171875,0.95410156,-0.0625,-0.09375,-0.25,0.0,0.0,0.0
1664627597875,-0.18554688,-0.26464844,0.94433594,0.0,-0.09375,-0.1875,0.0,0.0,0.0
1664627597934,-0.19726562,-0.26757812,0.94921875,-0.0625,-0.125,-0.0625,0.0,0.0,0.0
1664627597963,-0.19726562,-0.2685547,0.9394531,-0.0625,-0.125,0.0,0.0,0.0,0.0
1664627597995,-0.19042969,-0.2626953,0.9296875,-0.1875,-0.09375,-0.1875,-90.3125,-15.5625,-96.375
1664627598053,-0.19433594,-0.2763672,0.9482422,0.0,0.09375,0.0,0.0,0.0,0.0
1664627598085,-0.19140625,-0.26757812,0.9501953,-0.125,-0.09375,0.0,0.0,0.0,0.0
1664627598113,-0.19824219,-0.2685547,0.93652344,0.0,0.34375,0.375,0.0,0.0,0.0
1664627598174,-0.18847656,-0.265625,0.93847656,0.0,0.03125,-0.25,0.0,0.0,0.0
1664627598204,-0.19042969,-0.265625,0.94628906,-0.1875,-0.09375,-0.0625,0.0,0.0,0.0
1664627598233,-0.1875,-0.26171875,0.9394531,-0.125,-0.125,-0.125,0.0,0.0,0.0
1664627598293,-0.19238281,-0.25878906,0.9433594,0.0625,-0.03125,0.0,0.0,0.0,0.0
1664627598329,-0.19042969,-0.2685547,0.9472656,0.25,-0.09375,-0.125,0.0,0.0,0.0
1664627598354,-0.19433594,-0.28125,0.92578125,0.0,-0.1875,0.0,0.0,0.0,0.0
1664627598413,-0.19335938,-0.2685547,0.9355469,0.125,-0.09375,0.25,0.0,0.0,0.0
1664627598447,-0.18945312,-0.2705078,0.9394531,0.0,-0.09375,0.0625,0.0,0.0,0.0
1664627598476,-0.18261719,-0.26953125,0.9423828,0.0625,0.15625,0.1875,0.0,0.0,0.0
1664627598533,-0.19921875,-0.2685547,0.94140625,0.0,0.15625,0.65625,-89.875,-16.4375,-94.5625
1664627598563,-0.20117188,-0.25683594,0.9501953,-0.1875,0.09375,0.59375,0.0,0.0,0.0
1664627598594,-0.18652344,-0.26757812,0.93652344,0.0625,-0.125,0.4375,0.0,0.0,0.0
1664627598672,-0.18847656,-0.265625,0.94628906,-0.125,-0.125,0.3125,0.0,0.0,0.0
1664627598684,-0.1796875,-0.2626953,0.93359375,-0.0625,0.09375,0.3125,0.0,0.0,0.0
1664627598714,-0.18652344,-0.2626953,0.9394531,0.125,-0.03125,0.65625,0.0,0.0,0.0
1664627598744,-0.19433594,-0.27246094,0.94433594,-0.125,-0.125,0.375,0.0,0.0,0.0
1664627598803,-0.19824219,-0.2763672,0.9404297,-0.125,0.21875,0.59375,0.0,0.0,0.0
1664627598835,-0.18457031,-0.25976562,0.93652344,-0.125,0.21875,0.46875,0.0,0.0,0.0
1664627598864,-0.19042969,-0.2685547,0.9453125,0.0625,-0.09375,0.78125,0.0,0.0,0.0
1664627598923,-0.19140625,-0.26367188,0.9326172,-0.40625,0.15625,0.53125,0.0,0.0,0.0
1664627598953,-0.19433594,-0.2685547,0.9472656,0.0,0.21875,0.4375,0.0,0.0,0.0
1664627599012,-0.19433594,-0.27246094,0.94433594,0.1875,-0.125,-0.0625,-88.8125,-15.6875,-94.5625
1664627599043,-0.19238281,-0.26953125,0.94628906,0.0,-0.125,0.4375,0.0,0.0,0.0
1664627599073,-0.19042969,-0.2734375,0.9375,0.1875,-0.03125,0.71875,0.0,0.0,0.0
1664627599107,-0.18847656,-0.26171875,0.94140625,-0.0625,-0.03125,0.375,0.0,0.0,0.0
1664627599166,-0.19335938,-0.26757812,0.94433594,-0.125,-0.03125,0.125,0.0,0.0,0.0
1664627599197,-0.18554688,-0.2578125,0.9326172,0.0625,-0.03125,-0.0625,0.0,0.0,0.0
1664627599224,-0.19628906,-0.26367188,0.93847656,0.0,-0.03125,-0.3125,0.0,0.0,0.0
1664627599285,-0.19335938,-0.25976562,0.93652344,0.0,-0.125,0.0625,0.0,0.0,0.0
1664627599315,-0.18945312,-0.265625,0.9296875,0.0,0.03125,0.1875,0.0,0.0,0.0
1664627599343,-0.19238281,-0.265625,0.9375,0.0,-0.03125,-0.125,0.0,0.0,0.0
1664627599434,-0.1953125,-0.26464844,0.94628906,0.125,-0.1875,-0.125,0.0,0.0,0.0
1664627599440,-0.19042969,-0.26953125,0.9316406,-0.1875,-0.25,-0.1875,0.0,0.0,0.0
1664627599463,-0.19140625,-0.27441406,0.9472656,0.0,0.15625,-0.125,0.0,0.0,0.0
1664627599524,-0.19042969,-0.26953125,0.9423828,-0.3125,0.15625,-0.1875,-89.5625,-15.875,-95.75
1664627599552,-0.1875,-0.27148438,0.953125,0.125,0.03125,-0.375,0.0,0.0,0.0
1664627599583,-0.19238281,-0.26367188,0.94628906,-0.1875,-0.09375,-0.625,0.0,0.0,0.0
1664627599645,-0.19335938,-0.265625,0.9453125,0.25,0.21875,-0.625,0.0,0.0,0.0
1664627599676,-0.18652344,-0.27441406,0.9423828,0.125,-0.375,-0.5625,0.0,0.0,0.0
1664627599707,-0.1875,-0.27246094,0.9355469,0.1875,-0.09375,-0.0625,0.0,0.0,0.0
1664627599763,-0.19042969,-0.27539062,0.9472656,0.0,-0.09375,-0.125,0.0,0.0,0.0
1664627599793,-0.19140625,-0.27148438,0.9394531,0.0,0.03125,-0.375,0.0,0.0,0.0
1664627599824,-0.19628906,-0.26171875,0.9423828,0.0625,-0.125,-0.5625,0.0,0.0,0.0
1664627599883,-0.18457031,-0.2607422,0.94433594,0.0625,0.09375,-0.375,0.0,0.0,0.0
1664627599914,-0.19238281,-0.26464844,0.9355469,-0.0625,-0.03125,-0.4375,0.0,0.0,0.0
1664627599946,-0.18261719,-0.2685547,0.9375,0.0625,-0.125,-0.125,0.0,0.0,0.0
1664627600004,-0.19042969,-0.265625,0.93652344,0.0,0.09375,-0.1875,-90.4375,-16.0,-94.875
1664627600037,-0.20019531,-0.265625,0.9482422,-0.0625,-0.03125,-0.25,0.0,0.0,0.0
1664627600065,-0.19238281,-0.26171875,0.9453125,-0.0625,-0.03125,-0.25,0.0,0.0,0.0
1664627600124,-0.19238281,-0.26171875,0.9453125,0.0,-0.03125,-0.0625,0.0,0.0,0.0
1664627600154,-0.18945312,-0.28027344,0.9453125,-0.125,0.09375,-0.25,0.0,0.0,0.0
1664627600183,-0.18847656,-0.2685547,0.93847656,-0.3125,0.28125,0.0625,0.0,0.0,0.0
1664627600244,-0.18847656,-0.2607422,0.93066406,0.125,0.28125,-0.3125,0.0,0.0,0.0
1664627600274,-0.18945312,-0.265625,0.9482422,-0.0625,-0.09375,-0.1875,0.0,0.0,0.0
1664627600305,-0.18945312,-0.2705078,0.9326172,-0.1875,-0.03125,0.1875,0.0,0.0,0.0
1664627600363,-0.18945312,-0.27246094,0.9433594,0.0,-0.1875,-0.1875,0.0,0.0,0.0
1664627600396,-0.1953125,-0.2685547,0.93066406,0.125,-0.1875,-0.25,0.0,0.0,0.0
1664627600425,-0.18554688,-0.2607422,0.94921875,0.0,-0.125,-0.125,0.0,0.0,0.0
1664627600486,-0.18945312,-0.27148438,0.94140625,0.0625,-0.03125,0.3125,0.0,0.0,0.0
1664627600513,-0.18066406,-0.26757812,0.93652344,-0.0625,-0.09375,-0.0625,-90.3125,-16.625,-95.75
1664627600546,-0.18847656,-0.2607422,0.93847656,0.0,0.09375,0.0625,0.0,0.0,0.0
1664627600606,-0.19824219,-0.25976562,0.9482422,-0.0625,0.09375,-0.3125,0.0,0.0,0.0
1664627600633,-0.19238281,-0.27246094,0.94140625,0.125,-0.03125,-0.25,0.0,0.0,0.0
1664627600663,-0.18945312,-0.26367188,0.9394531,0.0625,-0.09375,0.0,0.0,0.0,0.0
1664627600724,-0.19140625,-0.26464844,0.9511719,0.0625,-0.125,0.0625,0.0,0.0,0.0
1664627600754,-0.18945312,-0.2734375,0.9316406,0.0,0.15625,0.3125,0.0,0.0,0.0
1664627600782,-0.19628906,-0.27246094,0.9326172,-0.1875,-0.09375,0.46875,0.0,0.0,0.0
1664627600843,-0.19824219,-0.26953125,0.9433594,-0.125,-0.09375,0.78125,0.0,0.0,0.0
1664627600874,-0.1953125,-0.2734375,0.9355469,-0.125,-0.09375,0.59375,0.0,0.0,0.0
1664627600906,-0.1953125,-0.265625,0.9375,-0.1875,0.40625,0.53125,0.0,0.0,0.0
1664627600964,-0.1875,-0.2734375,0.9355469,0.125,0.15625,0.25,0.0,0.0,0.0
1664627600998,-0.19238281,-0.265625,0.9375,-0.1875,-0.3125,0.4375,-88.375,-14.9375,-95.125
1664627601023,-0.19824219,-0.27441406,0.9316406,-0.25,-0.03125,0.4375,0.0,0.0,0.0
1664627601087,-0.19335938,-0.2705078,0.9433594,0.0,0.15625,0.125,0.0,0.0,0.0
1664627601115,-0.19140625,-0.2685547,0.93652344,0.125,-0.375,-0.125,0.0,0.0,0.0
1664627601146,-0.18945312,-0.26464844,0.9453125,-0.0625,-0.1875,0.3125,0.0,0.0,0.0
1664627601208,-0.19140625,-0.2705078,0.93847656,0.0,-0.03125,0.46875,0.0,0.0,0.0
1664627601233,-0.19335938,-0.2626953,0.9345703,-0.0625,-0.09375,0.3125,0.0,0.0,0.0
1664627601263,-0.19335938,-0.2626953,0.94433594,-0.0625,-0.09375,0.0625,0.0,0.0,0.0
1664627601323,-0.18652344,-0.27246094,0.9472656,0.0625,0.03125,0.0,0.0,0.0,0.0
1664627601357,-0.18261719,-0.25976562,0.93652344,-0.0625,-0.125,0.0625,0.0,0.0,0.0
1664627601383,-0.19824219,-0.2626953,0.9326172,0.0,-0.125,0.1875,0.0,0.0,0.0
1664627601445,-0.19238281,-0.27148438,0.94628906,0.0,-0.09375,0.3125,0.0,0.0,0.0
1664627601475,-0.19238281,-0.26660156,0.9394531,-0.3125,-0.03125,0.0,0.0,0.0,0.0
1664627601504,-0.1953125,-0.26367188,0.9482422,-0.0625,-0.125,0.0625,-89.25,-14.375,-95.0
1664627601567,-0.18652344,-0.2626953,0.9316406,0.1875,-0.25,0.0625,0.0,0.0,0.0
1664627601597,-0.19238281,-0.265625,0.9472656,-0.0625,-0.1875,-0.25,0.0,0.0,0.0
1664627601631,-0.19433594,-0.26660156,0.9589844,0.0,0.09375,-0.125,0.0,0.0,0.0
1664627601715,-0.19042969,-0.26953125,0.94433594,-0.1875,-0.03125,-0.3125,0.0,0.0,0.0
1664627601720,-0.20214844,-0.27148438,0.9472656,0.125,0.03125,-0.125,0.0,0.0,0.0
1664627601746,-0.1953125,-0.2685547,0.9404297,-0.1875,-0.09375,-0.125,0.0,0.0,0.0
1664627601803,-0.19726562,-0.2705078,0.9394531,0.0,0.15625,-0.0625,0.0,0.0,0.0
1664627601833,-0.19238281,-0.25878906,0.9433594,0.1875,-0.1875,-0.5625,0.0,0.0,0.0
1664627601864,-0.18945312,-0.26953125,0.93359375,0.125,-0.375,-0.4375,0.0,0.0,0.0
1664627601924,-0.18945312,-0.26953125,0.93847656,-0.1875,-0.03125,-0.125,0.0,0.0,0.0
1664627601955,-0.18652344,-0.265625,0.9404297,-0.0625,-0.09375,-0.0625,0.0,0.0,0.0
1664627601984,-0.18945312,-0.26953125,0.95703125,0.0,0.15625,-0.25,-90.0,-14.8125,-95.4375
1664627602043,-0.18847656,-0.27148438,0.9472656,0.0625,0.15625,-0.25,0.0,0.0,0.0
1664627602073,-0.18945312,-0.2626953,0.9501953,0.125,0.28125,-0.25,0.0,0.0,0.0
1664627602105,-0.18847656,-0.2626953,0.94433594,0.0625,-0.03125,-0.3125,0.0,0.0,0.0
1664627602164,-0.19726562,-0.27246094,0.9316406,0.0,0.09375,-0.3125,0.0,0.0,0.0
1664627602196,-0.19238281,-0.26953125,0.94140625,0.0,-0.09375,-0.375,0.0,0.0,0.0
1664627602224,-0.18945312,-0.2705078,0.9345703,-0.125,-0.09375,-0.1875,0.0,0.0,0.0
1664627602285,-0.18457031,-0.25976562,0.93847656,-0.0625,-0.1875,-0.1875,0.0,0.0,0.0
1664627602317,-0.18945312,-0.27441406,0.9404297,0.0625,-0.03125,0.125,0.0,0.0,0.0
1664627602344,-0.19335938,-0.26367188,0.9345703,-0.0625,-0.09375,0.0,0.0,0.0,0.0
1664627602402,-0.19335938,-0.26464844,0.9404297,-0.0625,0.46875,0.125,0.0,0.0,0.0
1664627602432,-0.1875,-0.2626953,0.93847656,-0.34375,0.46875,-0.3125,0.0,0.0,0.0
1664627602461,-0.1875,-0.26464844,0.94628906,0.375,0.09375,-0.3125,0.0,0.0,0.0
1664627602527,-0.18554688,-0.2626953,0.92578125,-0.1875,-0.03125,-0.125,-90.3125,-16.9375,-94.6875
1664627602555,-0.19824219,-0.25683594,0.94140625,-0.0625,0.15625,0.125,0.0,0.0,0.0
1664627602584,-0.1953125,-0.2626953,0.9355469,0.0,-0.1875,-0.1875,0.0,0.0,0.0
1664627602644,-0.19042969,-0.27148438,0.93066406,0.1875,-0.03125,-0.0625,0.0,0.0,0.0
1664627602674,-0.1875,-0.265625,0.9404297,-0.0625,-0.09375,0.0625,0.0,0.0,0.0
1664627602703,-0.19140625,-0.2705078,0.9355469,-0.0625,-0.03125,0.25,0.0,0.0,0.0
1664627602764,-0.1953125,-0.26464844,0.9326172,0.0,0.15625,0.0,0.0,0.0,0.0
1664627602794,-0.19140625,-0.26953125,0.9394531,-0.125,0.15625,0.125,0.0,0.0,0.0
1664627602826,-0.19140625,-0.2626953,0.9394531,0.0,0.09375,0.125,0.0,0.0,0.0
1664627602883,-0.19042969,-0.27246094,0.9501953,-0.0625,-0.03125,0.25,0.0,0.0,0.0
1664627602915,-0.19238281,-0.26660156,0.9501953,-0.0625,-0.03125,0.53125,0.0,0.0,0.0
1664627602943,-0.20507812,-0.265625,0.9248047,0.0625,-0.09375,0.3125,0.0,0.0,0.0
1664627603006,-0.19140625,-0.26660156,0.9355469,-0.125,0.03125,0.4375,-88.8125,-17.5,-96.625
1664627603036,-0.19140625,-0.26757812,0.9355469,-0.125,0.03125,0.125,0.0,0.0,0.0
1664627603063,-0.19726562,-0.26953125,0.9423828,0.125,0.03125,0.375,0.0,0.0,0.0
1664627603124,-0.18847656,-0.27148438,0.94921875,-0.125,-0.125,0.25,0.0,0.0,0.0
1664627603154,-0.19433594,-0.2734375,0.94140625,-0.1875,0.28125,0.375,0.0,0.0,0.0
1664627603183,-0.19335938,-0.26660156,0.93066406,-0.1875,0.15625,0.375,0.0,0.0,0.0
1664627603244,-0.19824219,-0.27539062,0.9501953,0.0625,0.15625,0.1875,0.0,0.0,0.0
1664627603273,-0.19042969,-0.26171875,0.9453125,-0.25,-0.25,0.375,0.0,0.0,0.0
1664627603303,-0.18652344,-0.2685547,0.9394531,0.0,0.15625,0.46875,0.0,0.0,0.0
1664627603363,-0.19726562,-0.26660156,0.9404297,0.125,-0.25,-0.0625,0.0,0.0,0.0
1664627603394,-0.18847656,-0.2734375,0.93847656,0.1875,-0.03125,0.0,0.0,0.0,0.0
1664627603424,-0.18652344,-0.2705078,0.94628906,-0.0625,-0.09375,0.25,0.0,0.0,0.0
1664627603484,-0.18847656,-0.26953125,0.9394531,0.1875,0.03125,0.375,0.0,0.0,0.0
1664627603513,-0.19042969,-0.2705078,0.9345703,0.125,-0.09375,0.25,-89.25,-15.875,-96.375
1664627603543,-0.18945312,-0.26953125,0.9453125,-0.0625,-0.03125,0.25,0.0,0.0,0.0
1664627603603,-0.19140625,-0.26464844,0.9375,0.125,0.03125,0.0625,0.0,0.0,0.0
1664627603634,-0.19433594,-0.27148438,0.9423828,0.0625,0.03125,0.0,0.0,0.0,0.0
1664627603666,-0.19140625,-0.2685547,0.94140625,0.125,0.09375,0.1875,0.0,0.0,0.0
1664627603725,-0.19238281,-0.2685547,0.9550781,-0.0625,0.03125,-0.125,0.0,0.0,0.0
1664627603756,-0.19042969,-0.2763672,0.9482422,-0.0625,-0.09375,-0.1875,0.0,0.0,0.0
1664627603784,-0.19335938,-0.26953125,0.9433594,0.0,-0.03125,-0.125,0.0,0.0,0.0
1664627603843,-0.18847656,-0.25878906,0.9433594,0.0625,-0.125,-0.3125,0.0,0.0,0.0
1664627603877,-0.19140625,-0.26464844,0.94433594,-0.1875,-0.09375,-0.375,0.0,0.0,0.0
1664627603905,-0.19042969,-0.26953125,0.9375,0.0,0.40625,-0.25,0.0,0.0,0.0
1664627603998,-0.19042969,-0.2685547,0.9423828,-0.125,0.21875,-0.375,0.0,0.0,0.0
1664627604003,-0.18652344,-0.26660156,0.9355469,0.0625,-0.09375,-0.25,-89.875,-15.6875,-95.875
1664627604028,-0.19238281,-0.27148438,0.96191406,-0.125,0.09375,-0.125,0.0,0.0,0.0
1664627604083,-0.19726562,-0.2626953,0.9472656,-0.0625,0.28125,-0.3125,0.0,0.0,0.0
1664627604114,-0.18945312,-0.25976562,0.93359375,0.125,-0.75,-0.4375,0.0,0.0,0.0
1664627604144,-0.18261719,-0.25878906,0.95214844,0.25,-0.09375,-0.375,0.0,0.0,0.0
1664627604204,-0.18847656,-0.26464844,0.93652344,-0.125,0.53125,-0.5,0.0,0.0,0.0
1664627604233,-0.19628906,-0.27148438,0.9501953,-0.59375,0.40625,-0.1875,0.0,0.0,0.0
1664627604263,-0.20019531,-0.2705078,0.9433594,0.0,-0.03125,0.125,0.0,0.0,0.0
1664627604327,-0.18945312,-0.2734375,0.94433594,0.1875,-0.1875,-0.0625,0.0,0.0,0.0
1664627604356,-0.18554688,-0.2705078,0.93359375,0.1875,-0.25,0.0,0.0,0.0,0.0
1664627604387,-0.19433594,-0.26171875,0.92871094,0.125,-0.3125,-0.0625,0.0,0.0,0.0
1664627604445,-0.18164062,-0.2685547,0.9375,0.0,-0.125,-0.3125,0.0,0.0,0.0
1664627604476,-0.18554688,-0.26660156,0.94628906,-0.1875,0.28125,-0.5,0.0,0.0,0.0
1664627604505,-0.18847656,-0.27734375,0.9394531,-0.3125,0.34375,-0.5625,-90.125,-15.6875,-94.25
1664627604563,-0.18652344,-0.2685547,0.9296875,0.0,0.09375,-0.0625,0.0,0.0,0.0
1664627604593,-0.18847656,-0.25976562,0.9482422,-0.0625,-0.09375,0.25,0.0,0.0,0.0
1664627604626,-0.1953125,-0.26953125,0.93652344,-0.125,-0.03125,0.25,0.0,0.0,0.0
1664627604682,-0.19433594,-0.2734375,0.9277344,-0.1875,0.09375,0.0,0.0,0.0,0.0
1664627604711,-0.19433594,-0.2734375,0.9355469,0.1875,0.34375,-0.4375,0.0,0.0,0.0
1664627604744,-0.1953125,-0.27246094,0.94140625,-0.0625,-0.1875,-0.125,0.0,0.0,0.0
1664627604803,-0.19433594,-0.26367188,0.9277344,0.0,0.15625,-0.1875,0.0,0.0,0.0
1664627604834,-0.19726562,-0.26464844,0.94628906,-0.0625,-0.03125,-0.0625,0.0,0.0,0.0
1664627604864,-0.1875,-0.27148438,0.94433594,0.1875,-0.125,-0.1875,0.0,0.0,0.0
1664627604925,-0.18457031,-0.27441406,0.9248047,0.0,-0.125,0.125,0.0,0.0,0.0
1664627604953,-0.1875,-0.27539062,0.9472656,0.0,-0.09375,0.1875,0.0,0.0,0.0
1664627604985,-0.18164062,-0.26953125,0.9326172,-0.125,-0.09375,0.25,-88.9375,-16.1875,-94.6875
1664627605074,-0.18945312,-0.26953125,0.9404297,0.0,0.09375,0.25,0.0,0.0,0.0
1664627605077,-0.1875,-0.27539062,0.9482422,-0.125,0.21875,0.0625,0.0,0.0,0.0
1664627605104,-0.19433594,-0.265625,0.95214844,0.125,0.03125,0.0,0.0,0.0,0.0
1664627605164,-0.18261719,-0.2705078,0.9394531,0.0,-0.09375,0.25,0.0,0.0,0.0
1664627605200,-0.1875,-0.26953125,0.94921875,0.0,-0.03125,0.46875,0.0,0.0,0.0
1664627605223,-0.18945312,-0.265625,0.9404297,-0.25,0.21875,0.4375,0.0,0.0,0.0
1664627605283,-0.18652344,-0.27148438,0.9326172,0.125,0.09375,0.375,0.0,0.0,0.0
1664627605314,-0.19628906,-0.2705078,0.9511719,0.0625,-0.09375,0.46875,0.0,0.0,0.0
1664627605343,-0.18847656,-0.2685547,0.9296875,-0.3125,-0.03125,0.46875,0.0,0.0,0.0
1664627605405,-0.19335938,-0.27148438,0.94628906,-0.125,0.15625,0.65625,0.0,0.0,0.0
1664627605433,-0.19335938,-0.2783203,0.93066406,-0.25,0.21875,0.375,0.0,0.0,0.0
1664627605463,-0.1953125,-0.26953125,0.9404297,0.0,0.09375,0.3125,0.0,0.0,0.0
1664627605524,-0.18457031,-0.265625,0.95214844,-0.34375,-0.09375,0.25,-90.75,-15.875,-95.4375
1664627605553,-0.19140625,-0.27148438,0.9355469,0.0,0.09375,0.25,0.0,0.0,0.0
1664627605583,-0.20117188,-0.2685547,0.93359375,0.0,-0.3125,0.0625,0.0,0.0,0.0
1664627605644,-0.19824219,-0.2685547,0.9394531,-0.0625,-0.03125,0.3125,0.0,0.0,0.0
1664627605674,-0.18945312,-0.27246094,0.94140625,0.0,-0.125,0.59375,0.0,0.0,0.0
1664627605705,-0.19140625,-0.27148438,0.93359375,0.125,0.21875,0.53125,0.0,0.0,0.0
1664627605763,-0.19238281,-0.26464844,0.9345703,-0.125,0.09375,0.25,0.0,0.0,0.0
1664627605792,-0.18945312,-0.26660156,0.94140625,0.25,0.09375,0.25,0.0,0.0,0.0
1664627605823,-0.19042969,-0.2685547,0.9394531,0.125,0.09375,0.25,0.0,0.0,0.0
1664627605887,-0.18359375,-0.26171875,0.9375,0.125,-0.09375,0.25,0.0,0.0,0.0
1664627605914,-0.19140625,-0.2705078,0.9560547,-0.0625,-0.09375,0.65625,0.0,0.0,0.0
1664627605944,-0.19921875,-0.27246094,0.94433594,-0.1875,-0.09375,0.46875,0.0,0.0,0.0
1664627606006,-0.19335938,-0.2626953,0.9453125,0.0,0.09375,0.125,0.0,0.0,0.0
1664627606035,-0.19824219,-0.26660156,0.94433594,0.125,0.03125,0.3125,-88.8125,-16.0,-96.1875
1664627606065,-0.19140625,-0.26660156,0.9453125,-0.25,-0.09375,0.0,0.0,0.0,0.0
1664627606123,-0.19238281,-0.26464844,0.95410156,0.1875,0.28125,-0.125,0.0,0.0,0.0
1664627606155,-0.18847656,-0.27148438,0.9472656,-0.125,0.21875,-0.3125,0.0,0.0,0.0
1664627606184,-0.18945312,-0.26367188,0.9355469,-0.0625,0.21875,-0.25,0.0,0.0,0.0
1664627606276,-0.18945312,-0.26464844,0.9326172,-0.34375,-0.03125,-0.3125,0.0,0.0,0.0
1664627606280,-0.19238281,-0.27148438,0.9433594,0.0625,0.09375,-0.4375,0.0,0.0,0.0
1664627606305,-0.18945312,-0.2705078,0.94433594,0.125,-0.3125,-0.6875,0.0,0.0,0.0
1664627606363,-0.19433594,-0.27441406,0.9423828,0.0,-0.125,-0.125,0.0,0.0,0.0
1664627606396,-0.18945312,-0.2734375,0.9394531,0.0,-0.09375,-0.125,0.0,0.0,0.0
1664627606422,-0.19140625,-0.265625,0.93847656,0.0,0.03125,-0.5625,0.0,0.0,0.0
1664627606483,-0.19238281,-0.27246094,0.93847656,-0.0625,-0.03125,-0.75,0.0,0.0,0.0
1664627606514,-0.19238281,-0.27148438,0.9423828,0.1875,0.03125,-0.75,-89.5625,-15.5625,-94.6875
1664627606546,-0.18554688,-0.2705078,0.9394531,0.0625,0.09375,-0.75,0.0,0.0,0.0
1664627606605,-0.19042969,-0.2685547,0.9296875,0.25,-0.25,-0.375,0.0,0.0,0.0
1664627606636,-0.18945312,-0.2685547,0.9511719,0.0625,-0.125,-0.1875,0.0,0.0,0.0
1664627606663,-0.19042969,-0.27246094,0.93652344,-0.0625,-0.125,-0.3125,0.0,0.0,0.0
1664627606723,-0.18945312,-0.265625,0.9453125,-0.0625,0.03125,-0.25,0.0,0.0,0.0
1664627606754,-0.19042969,-0.2685547,0.94433594,0.0,0.15625,-0.1875,0.0,0.0,0.0
1664627606784,-0.18359375,-0.2705078,0.9394531,-0.125,0.03125,-0.1875,0.0,0.0,0.0
1664627606844,-0.19140625,-0.27441406,0.94433594,-0.25,0.34375,-0.0625,0.0,0.0,0.0
1664627606873,-0.18554688,-0.2734375,0.9423828,0.0,0.21875,-0.25,0.0,0.0,0.0
1664627606905,-0.19628906,-0.26757812,0.9296875,0.0,0.03125,-0.375,0.0,0.0,0.0
1664627606964,-0.19824219,-0.265625,0.93359375,-0.125,0.09375,-0.0625,0.0,0.0,0.0
1664627607001,-0.19824219,-0.26660156,0.9296875,0.125,0.09375,-0.25,0.0,0.0,0.0
1664627607024,-0.18457031,-0.26953125,0.94433594,0.1875,-0.375,-0.25,-90.3125,-16.9375,-93.9375
1664627607082,-0.19238281,-0.265625,0.9355469,-0.0625,-0.1875,-0.125,0.0,0.0,0.0
1664627607113,-0.19140625,-0.2734375,0.94921875,0.0625,0.09375,0.0625,0.0,0.0,0.0
1664627607145,-0.18554688,-0.26367188,0.9472656,-0.125,-0.03125,0.0625,0.0,0.0,0.0
1664627607204,-0.19824219,-0.27929688,0.94433594,-0.0625,-0.03125,-0.1875,0.0,0.0,0.0
1664627607236,-0.1953125,-0.265625,0.9326172,0.0625,0.09375,-0.125,0.0,0.0,0.0
1664627607263,-0.1875,-0.26464844,0.9296875,0.0,0.03125,-0.1875,0.0,0.0,0.0
1664627607324,-0.18554688,-0.26367188,0.94433594,0.125,0.03125,0.0,0.0,0.0,0.0
1664627607353,-0.19726562,-0.26660156,0.9433594,-0.0625,-0.03125,-0.0625,0.0,0.0,0.0
1664627607386,-0.19140625,-0.26953125,0.94628906,0.0,0.09375,0.0,0.0,0.0,0.0
1664627607445,-0.1953125,-0.25976562,0.93359375,0.0,0.03125,-0.125,0.0,0.0,0.0
1664627607473,-0.19433594,-0.27441406,0.9501953,0.0,-0.1875,0.0625,0.0,0.0,0.0
1664627607508,-0.18164062,-0.2685547,0.9355469,0.0,0.09375,0.375,-89.875,-16.75,-96.9375
1664627607566,-0.18359375,-0.27441406,0.9316406,-0.3125,0.15625,0.1875,0.0,0.0,0.0
1664627607594,-0.18554688,-0.27246094,0.9423828,0.1875,0.09375,0.53125,0.0,0.0,0.0
1664627607627,-0.18457031,-0.25878906,0.93847656,-0.25,0.03125,0.375,0.0,0.0,0.0
1664627607683,-0.1953125,-0.2578125,0.94140625,-0.25,0.28125,0.4375,0.0,0.0,0.0
1664627607714,-0.18945312,-0.27148438,0.92871094,0.125,-0.3125,0.0625,0.0,0.0,0.0
1664627607744,-0.18457031,-0.26953125,0.9355469,0.1875,-0.25,0.1875,0.0,0.0,0.0
1664627607806,-0.18359375,-0.2734375,0.9423828,0.0625,-0.25,0.46875,0.0,0.0,0.0
1664627607833,-0.1953125,-0.26171875,0.94628906,0.0,0.09375,0.78125,0.0,0.0,0.0
1664627607867,-0.19042969,-0.25878906,0.9345703,-0.1875,-0.1875,0.46875,0.0,0.0,0.0
1664627607924,-0.1875,-0.25976562,0.9423828,0.0,0.03125,0.125,0.0,0.0,0.0
1664627607954,-0.19628906,-0.2607422,0.94628906,-0.125,0.15625,0.0625,0.0,0.0,0.0
1664627607983,-0.18847656,-0.25976562,0.9511719,-0.0625,-0.09375,0.1875,0.0,0.0,0.0
1664627608043,-0.19238281,-0.265625,0.93652344,-0.0625,-0.1875,0.375,-88.9375,-16.625,-95.4375
1664627608073,-0.19042969,-0.27246094,0.9511719,-0.125,-0.03125,0.4375,0.0,0.0,0.0
1664627608106,-0.20703125,-0.2734375,0.9511719,-0.0625,-0.09375,0.3125,0.0,0.0,0.0
1664627608165,-0.19433594,-0.2734375,0.9404297,0.0625,0.09375,0.375,0.0,0.0,0.0
1664627608193,-0.18847656,-0.27246094,0.9433594,-0.125,-0.03125,0.0625,0.0,0.0,0.0
1664627608224,-0.19140625,-0.27246094,0.9433594,0.0,0.28125,0.25,0.0,0.0,0.0
1664627608284,-0.18847656,-0.2685547,0.9404297,-0.125,0.15625,0.0,0.0,0.0,0.0
1664627608315,-0.19433594,-0.27148438,0.94140625,0.0,0.03125,0.3125,0.0,0.0,0.0
1664627608342,-0.19921875,-0.26953125,0.9423828,-0.0625,0.09375,0.0625,0.0,0.0,0.0
1664627608406,-0.19628906,-0.25976562,0.94921875,0.1875,0.0,-0.3125,0.0,0.0,0.0
1664627608434,-0.19140625,-0.26464844,0.9453125,0.0,-0.34375,-0.375,0.0,0.0,0.0
1664627608463,-0.19042969,-0.2685547,0.953125,0.0,-0.09375,-0.0625,0.0,0.0,0.0
1664627608555,-0.19042969,-0.27246094,0.94433594,0.0,-0.15625,-0.0625,-90.75,-17.1875,-94.6875
1664627608560,-0.19433594,-0.27148438,0.953125,0.0,0.0,-0.375,0.0,0.0,0.0
1664627608593,-0.1875,-0.2685547,0.93847656,-0.03125,-0.03125,-0.4375,0.0,0.0,0.0
1664627608646,-0.19335938,-0.26660156,0.92871094,0.0,0.1875,-0.375,0.0,0.0,0.0
1664627608674,-0.18945312,-0.26660156,0.94628906,0.0625,-0.15625,-0.5,0.0,0.0,0.0
1664627608704,-0.19628906,-0.26757812,0.93066406,0.0,-0.09375,-0.5,0.0,0.0,0.0
1664627608765,-0.19042969,-0.26464844,0.9326172,-0.03125,-0.03125,-0.6875,0.0,0.0,0.0
1664627608793,-0.18457031,-0.26171875,0.9404297,0.125,-0.21875,-0.8125,0.0,0.0,0.0
1664627608822,-0.19042969,-0.2626953,0.93847656,0.125,-0.15625,-0.5625,0.0,0.0,0.0
1664627608914,-0.18261719,-0.26464844,0.9472656,-0.28125,-0.03125,-0.5,0.0,0.0,0.0
1664627608919,-0.19824219,-0.265625,0.94921875,0.125,0.375,-0.4375,0.0,0.0,0.0
1664627608943,-0.17871094,-0.2685547,0.9375,-0.09375,0.25,-0.625,0.0,0.0,0.0
1664627609006,-0.19140625,-0.26953125,0.9345703,0.125,0.0625,-0.625,0.0,0.0,0.0
1664627609036,-0.1875,-0.27148438,0.9423828,-0.09375,-0.03125,-0.4375,-90.0,-15.875,-95.0
1664627609063,-0.18652344,-0.26953125,0.94921875,0.0,0.1875,-0.4375,0.0,0.0,0.0
1664627609125,-0.1953125,-0.26757812,0.9394531,0.0625,-0.34375,-0.5625,0.0,0.0,0.0
1664627609158,-0.18945312,-0.265625,0.9326172,0.125,0.0,-0.125,0.0,0.0,0.0
1664627609191,-0.18261719,-0.26953125,0.953125,-0.15625,-0.15625,-0.3125,0.0,0.0,0.0
1664627609275,-0.1875,-0.26953125,0.94433594,0.0,0.0,-0.25,0.0,0.0,0.0
1664627609279,-0.1875,-0.26757812,0.9394531,0.0,0.0625,-0.375,0.0,0.0,0.0
1664627609303,-0.19335938,-0.26953125,0.9482422,0.0,0.125,-0.4375,0.0,0.0,0.0
1664627609364,-0.19238281,-0.27246094,0.9472656,0.0,0.125,-0.375,0.0,0.0,0.0
1664627609392,-0.19433594,-0.26953125,0.95214844,0.125,0.0,-0.25,0.0,0.0,0.0
1664627609423,-0.19335938,-0.26953125,0.94921875,0.0625,-0.15625,-0.375,0.0,0.0,0.0
1664627609488,-0.18652344,-0.2685547,0.9453125,0.0625,0.125,-0.25,0.0,0.0,0.0
1664627609515,-0.19433594,-0.26953125,0.9433594,-0.09375,0.0625,-0.5,-89.375,-17.0625,-95.125
1664627609545,-0.18652344,-0.2734375,0.9345703,-0.09375,-0.21875,-0.375,0.0,0.0,0.0
1664627609604,-0.19824219,-0.26660156,0.94628906,0.0625,-0.09375,-0.0625,0.0,0.0,0.0
1664627609634,-0.18945312,-0.2607422,0.9355469,-0.28125,0.3125,-0.25,0.0,0.0,0.0
1664627609666,-0.18847656,-0.27148438,0.9423828,0.0,0.1875,-0.5625,0.0,0.0,0.0
1664627609725,-0.18847656,-0.2705078,0.9345703,-0.03125,-0.21875,-0.1875,0.0,0.0,0.0
1664627609757,-0.19238281,-0.26464844,0.9326172,-0.15625,0.125,-0.0625,0.0,0.0,0.0
1664627609783,-0.19335938,-0.26464844,0.9394531,0.0,-0.15625,-0.25,0.0,0.0,0.0
1664627609846,-0.1875,-0.26953125,0.94433594,0.125,-0.28125,-0.25,0.0,0.0,0.0
1664627609877,-0.19238281,-0.27148438,0.9433594,0.0625,-0.15625,-0.0625,0.0,0.0,0.0
1664627609903,-0.18945312,-0.26953125,0.95410156,0.0625,-0.03125,0.15625,0.0,0.0,0.0
1664627609963,-0.18847656,-0.25976562,0.9433594,-0.03125,-0.15625,-0.0625,0.0,0.0,0.0
1664627609996,-0.18847656,-0.26757812,0.94433594,0.0,0.0625,0.0625,0.0,0.0,0.0
1664627610022,-0.19335938,-0.265625,0.95214844,-0.03125,-0.09375,-0.25,-88.8125,-16.75,-94.25
1664627610086,-0.1953125,-0.27246094,0.9453125,0.1875,-0.03125,-0.3125,0.0,0.0,0.0
1664627610115,-0.18554688,-0.26660156,0.9326172,0.0625,0.0625,0.15625,0.0,0.0,0.0
1664627610146,-0.19921875,-0.27246094,0.94921875,-0.03125,-0.09375,0.21875,0.0,0.0,0.0
1664627610208,-0.19042969,-0.27148438,0.92285156,-0.03125,-0.03125,0.0625,0.0,0.0,0.0
1664627610237,-0.19042969,-0.2763672,0.93359375,0.0625,-0.09375,0.28125,0.0,0.0,0.0
1664627610263,-0.19042969,-0.27148438,0.9238281,-0.09375,-0.21875,0.21875,0.0,0.0,0.0
1664627610324,-0.18847656,-0.26660156,0.9667969,0.0,0.125,0.53125,0.0,0.0,0.0
1664627610355,-0.18945312,-0.2705078,0.94921875,-0.28125,0.0625,0.46875,0.0,0.0,0.0
1664627610383,-0.18847656,-0.26367188,0.9453125,0.125,0.125,0.21875,0.0,0.0,0.0
1664627610444,-0.19628906,-0.26171875,0.9404297,-0.40625,-0.15625,0.40625,0.0,0.0,0.0
1664627610473,-0.20410156,-0.26953125,0.94433594,0.0,0.25,0.28125,0.0,0.0,0.0
1664627610505,-0.19042969,-0.26757812,0.93359375,0.125,-0.34375,0.0625,-88.9375,-15.125,-95.4375
1664627610566,-0.19042969,-0.26660156,0.9355469,-0.03125,-0.09375,0.15625,0.0,0.0,0.0
1664627610595,-0.19238281,-0.2734375,0.9482422,0.125,-0.34375,0.53125,0.0,0.0,0.0
1664627610626,-0.18652344,-0.26171875,0.9453125,0.0,-0.03125,0.34375,0.0,0.0,0.0
1664627610653,-0.19042969,-0.26660156,0.9472656,-0.03125,-0.15625,0.28125,0.0,0.0,0.0
1664627610713,-0.19140625,-0.26171875,0.9433594,-0.03125,0.0,0.34375,0.0,0.0,0.0
1664627610745,-0.18359375,-0.26757812,0.953125,0.0,-0.09375,0.15625,0.0,0.0,0.0
1664627610772,-0.18945312,-0.26171875,0.9355469,-0.09375,-0.09375,0.125,0.0,0.0,0.0
1664627610832,-0.18652344,-0.27246094,0.9501953,-0.03125,-0.09375,0.0625,0.0,0.0,0.0
1664627610866,-0.19140625,-0.26464844,0.9375,-0.03125,-0.21875,-0.1875,0.0,0.0,0.0
1664627610896,-0.20019531,-0.27539062,0.94628906,0.0625,-0.09375,0.125,0.0,0.0,0.0
1664627610957,-0.19238281,-0.25976562,0.94433594,-0.09375,-0.21875,0.0625,0.0,0.0,0.0
1664627610986,-0.19335938,-0.27148438,0.9423828,0.125,0.125,0.0,0.0,0.0,0.0
1664627611044,-0.19628906,-0.27148438,0.93652344,-0.03125,0.0,-0.25,-89.875,-15.25,-95.625
1664627611073,-0.1953125,-0.27246094,0.9550781,0.0,0.125,-0.25,0.0,0.0,0.0
1664627611106,-0.1875,-0.2607422,0.93652344,-0.34375,-0.03125,-0.3125,0.0,0.0,0.0
1664627611132,-0.1953125,-0.2626953,0.94628906,0.0,0.0625,-0.4375,0.0,0.0,0.0
1664627611193,-0.20214844,-0.27246094,0.9423828,0.0625,-0.40625,-0.625,0.0,0.0,0.0
1664627611223,-0.19140625,-0.26367188,0.9375,0.0625,-0.21875,-0.3125,0.0,0.0,0.0
1664627611255,-0.20214844,-0.26464844,0.94921875,-0.03125,-0.28125,-0.3125,0.0,0.0,0.0
1664627611313,-0.19042969,-0.2705078,0.9453125,0.0625,0.0,-0.4375,0.0,0.0,0.0
1664627611345,-0.19628906,-0.26757812,0.93847656,-0.03125,-0.03125,-0.5625,0.0,0.0,0.0
1664627611376,-0.19433594,-0.2763672,0.94433594,0.1875,0.0625,-0.75,0.0,0.0,0.0
1664627611433,-0.19335938,-0.27246094,0.9423828,-0.03125,0.0,-1.0,0.0,0.0,0.0
1664627611465,-0.18359375,-0.26464844,0.9472656,0.0625,-0.28125,-1.21875,0.0,0.0,0.0
1664627611496,-0.1875,-0.2626953,0.9423828,0.0625,-0.21875,-0.6875,-90.3125,-15.5625,-94.375
1664627611552,-0.19238281,-0.26953125,0.94140625,-0.03125,-0.15625,-0.375,0.0,0.0,0.0
1664627611584,-0.19335938,-0.2626953,0.94921875,0.0,-0.15625,-0.25,0.0,0.0,0.0
1664627611615,-0.18945312,-0.27246094,0.9404297,-0.09375,0.0,-0.25,0.0,0.0,0.0
1664627611678,-0.18261719,-0.2685547,0.9394531,-0.03125,0.1875,-0.25,0.0,0.0,0.0
1664627611705,-0.19238281,-0.2548828,0.9375,-0.28125,-0.03125,-0.375,0.0,0.0,0.0
1664627611740,-0.1953125,-0.2626953,0.93652344,0.25,-0.15625,-0.6875,0.0,0.0,0.0
1664627611802,-0.18945312,-0.265625,0.94921875,-0.28125,-0.09375,-0.3125,0.0,0.0,0.0
1664627611824,-0.1953125,-0.26367188,0.9453125,-0.28125,0.25,-0.1875,0.0,0.0,0.0
1664627611853,-0.18554688,-0.265625,0.93359375,0.0625,-0.28125,-0.4375,0.0,0.0,0.0
1664627611913,-0.1875,-0.27246094,0.93847656,0.25,-0.09375,-0.25,0.0,0.0,0.0
1664627611947,-0.18652344,-0.2685547,0.9482422,-0.09375,-0.15625,-0.125,0.0,0.0,0.0
1664627611973,-0.19726562,-0.27148438,0.9394531,0.0625,0.0625,0.125,0.0,0.0,0.0
1664627612035,-0.19433594,-0.26953125,0.9404297,-0.03125,-0.09375,-0.375,-90.75,-16.1875,-95.4375
1664627612066,-0.19628906,-0.26171875,0.9296875,0.0,0.1875,-0.375,0.0,0.0,0.0
1664627612124,-0.18457031,-0.27148438,0.9394531,-0.21875,-0.03125,-0.5,0.0,0.0,0.0
1664627612156,-0.19335938,-0.2685547,0.9482422,0.0,0.0625,-0.125,0.0,0.0,0.0
1664627612183,-0.18945312,-0.2685547,0.9482422,-0.09375,-0.09375,-0.0625,0.0,0.0,0.0
1664627612213,-0.19335938,-0.2685547,0.9375,-0.09375,-0.09375,-0.125,0.0,0.0,0.0
1664627612275,-0.18945312,-0.27148438,0.9453125,0.125,-0.03125,-0.125,0.0,0.0,0.0
1664627612306,-0.18945312,-0.26464844,0.9345703,0.0,-0.09375,-0.125,0.0,0.0,0.0
1664627612334,-0.18554688,-0.26367188,0.94628906,-0.03125,-0.15625,0.28125,0.0,0.0,0.0
1664627612393,-0.18945312,-0.26757812,0.94140625,-0.28125,0.25,0.34375,0.0,0.0,0.0
1664627612423,-0.19042969,-0.26757812,0.9296875,0.125,0.0,0.34375,0.0,0.0,0.0
1664627612452,-0.19238281,-0.26953125,0.93652344,-0.15625,-0.09375,0.46875,0.0,0.0,0.0
1664627612513,-0.18652344,-0.2685547,0.94140625,0.0625,0.0625,0.65625,-90.125,-13.9375,-94.875
1664627612545,-0.20117188,-0.25976562,0.9375,0.125,-0.28125,0.15625,0.0,0.0,0.0
1664627612572,-0.19726562,-0.26660156,0.94628906,0.0625,-0.09375,0.0625,0.0,0.0,0.0
1664627612633,-0.18261719,-0.26953125,0.94433594,0.125,-0.15625,0.40625,0.0,0.0,0.0
1664627612664,-0.1875,-0.27246094,0.9375,0.125,0.0625,0.65625,0.0,0.0,0.0
1664627612693,-0.19433594,-0.26171875,0.9580078,-0.09375,-0.09375,0.28125,0.0,0.0,0.0
1664627612755,-0.19628906,-0.2705078,0.9316406,0.0,0.25,0.28125,0.0,0.0,0.0
1664627612790,-0.18652344,-0.2607422,0.9394531,0.0,0.0,0.15625,0.0,0.0,0.0
1664627612815,-0.20117188,-0.26757812,0.9472656,0.0625,-0.15625,0.15625,0.0,0.0,0.0
1664627612873,-0.19433594,-0.27246094,0.9345703,-0.09375,-0.15625,0.34375,0.0,0.0,0.0
1664627612909,-0.19238281,-0.27539062,0.9404297,0.0,0.0,0.15625,0.0,0.0,0.0
1664627612932,-0.1953125,-0.26953125,0.94140625,0.0,-0.34375,0.28125,0.0,0.0,0.0
1664627612994,-0.19140625,-0.26464844,0.9433594,-0.09375,-0.09375,0.125,0.0,0.0,0.0
1664627613024,-0.18554688,-0.26757812,0.9472656,0.0,0.0625,0.21875,-90.875,-14.6875,-97.25
1664627613053,-0.1953125,-0.27246094,0.9375,-0.15625,0.0625,0.125,0.0,0.0,0.0
1664627613114,-0.19824219,-0.26953125,0.9394531,0.0,0.0,0.125,0.0,0.0,0.0
1664627613145,-0.19335938,-0.26660156,0.93359375,-0.28125,-0.03125,-0.125,0.0,0.0,0.0
1664627613173,-0.19726562,-0.2607422,0.9472656,-0.09375,0.125,0.0,0.0,0.0,0.0
1664627613234,-0.19628906,-0.265625,0.9404297,0.0625,-0.40625,-0.5,0.0,0.0,0.0
1664627613263,-0.19824219,-0.27929688,0.93066406,-0.03125,-0.09375,-0.25,0.0,0.0,0.0
1664627613294,-0.18652344,-0.2763672,0.94628906,0.125,-0.40625,-0.1875,0.0,0.0,0.0
1664627613353,-0.18945312,-0.26367188,0.94921875,-0.03125,-0.09375,-0.375,0.0,0.0,0.0
1664627613382,-0.19628906,-0.2763672,0.9423828,-0.09375,-0.15625,-0.25,0.0,0.0,0.0
1664627613416,-0.19628906,-0.27148438,0.95214844,0.1875,0.0,-0.375,0.0,0.0,0.0
1664627613475,-0.1875,-0.26171875,0.93066406,0.0625,-0.09375,-0.5,0.0,0.0,0.0
1664627613504,-0.19726562,-0.26660156,0.93359375,0.0625,-0.15625,-0.6875,-90.0,-16.1875,-95.4375
1664627613532,-0.19628906,-0.26757812,0.9404297,0.0,-0.03125,-0.5,0.0,0.0,0.0
1664627613596,-0.19726562,-0.26757812,0.93359375,0.125,-0.21875,-0.6875,0.0,0.0,0.0
1664627613628,-0.19824219,-0.26367188,0.94433594,-0.15625,-0.15625,-0.6875,0.0,0.0,0.0
1664627613656,-0.1953125,-0.26757812,0.94140625,0.0625,0.0,-0.4375,0.0,0.0,0.0
1664627613714,-0.19238281,-0.2626953,0.9394531,-0.09375,-0.09375,-0.625,0.0,0.0,0.0
1664627613743,-0.18554688,-0.26757812,0.9355469,0.1875,0.0625,-0.625,0.0,0.0,0.0
1664627613773,-0.19238281,-0.2705078,0.9453125,-0.09375,-0.21875,-0.375,0.0,0.0,0.0
1664627613838,-0.18457031,-0.26660156,0.9580078,-0.15625,0.125,-0.25,0.0,0.0,0.0
1664627613864,-0.19921875,-0.26171875,0.93652344,-0.03125,-0.09375,-0.5625,0.0,0.0,0.0
1664627613896,-0.1953125,-0.2685547,0.9472656,0.25,0.0,-0.3125,0.0,0.0,0.0
1664627613954,-0.1796875,-0.27148438,0.9394531,-0.03125,0.0,-0.125,0.0,0.0,0.0
1664627613986,-0.18945312,-0.27734375,0.94628906,0.0,0.0625,-0.0625,0.0,0.0,0.0
1664627614013,-0.19140625,-0.26660156,0.94628906,-0.03125,-0.09375,-0.25,-90.0,-16.9375,-97.375
1664627614075,-0.18066406,-0.2705078,0.9394531,-0.09375,-0.03125,-0.5,0.0,0.0,0.0
1664627614104,-0.18652344,-0.26757812,0.9423828,-0.09375,0.125,-0.625,0.0,0.0,0.0
1664627614135,-0.19238281,-0.2607422,0.93652344,-0.03125,-0.09375,-0.375,0.0,0.0,0.0
1664627614196,-0.19140625,-0.2763672,0.94628906,-0.03125,-0.15625,-0.3125,0.0,0.0,0.0
1664627614226,-0.19140625,-0.2626953,0.93652344,-0.03125,-0.09375,-0.3125,0.0,0.0,0.0
1664627614253,-0.1953125,-0.2626953,0.9433594,-0.03125,-0.15625,-0.25,0.0,0.0,0.0
1664627614315,-0.19628906,-0.26757812,0.93066406,-0.03125,-0.03125,-0.0625,0.0,0.0,0.0
1664627614344,-0.1875,-0.2626953,0.9404297,0.0,0.125,0.21875,0.0,0.0,0.0
1664627614375,-0.18164062,-0.2705078,0.9404297,-0.15625,0.125,0.15625,0.0,0.0,0.0
1664627614432,-0.19140625,-0.26953125,0.9296875,0.3125,0.0625,0.125,0.0,0.0,0.0
1664627614463,-0.18554688,-0.2705078,0.9345703,-0.09375,-0.15625,0.46875,0.0,0.0,0.0
1664627614496,-0.19042969,-0.2607422,0.94628906,0.0,0.0625,0.71875,-90.3125,-15.5625,-95.0
1664627614554,-0.19433594,-0.25976562,0.9453125,0.0625,-0.09375,0.46875,0.0,0.0,0.0
1664627614583,-0.18554688,-0.25976562,0.93652344,0.0,0.0,0.40625,0.0,0.0,0.0
1664627614613,-0.18652344,-0.2734375,0.9355469,0.0625,-0.15625,0.46875,0.0,0.0,0.0
1664627614674,-0.19140625,-0.25976562,0.9316406,-0.03125,-0.09375,0.59375,0.0,0.0,0.0
1664627614703,-0.18847656,-0.2607422,0.9423828,-0.03125,-0.15625,0.40625,0.0,0.0,0.0
1664627614735,-0.19433594,-0.26171875,0.94628906,0.0,0.0625,0.46875,0.0,0.0,0.0
1664627614794,-0.19238281,-0.26464844,0.9453125,0.0,0.125,0.125,0.0,0.0,0.0
1664627614823,-0.19238281,-0.265625,0.94140625,0.0,-0.28125,0.0,0.0,0.0,0.0
1664627614853,-0.18847656,-0.2607422,0.9423828,0.0,-0.15625,0.28125,0.0,0.0,0.0
1664627614913,-0.19824219,-0.2705078,0.9433594,0.0,-0.15625,0.125,0.0,0.0,0.0
1664627614944,-0.1875,-0.27148438,0.94433594,0.0,-0.09375,0.125,0.0,0.0,0.0
1664627614976,-0.19140625,-0.26171875,0.9248047,-0.15625,-0.21875,0.0,0.0,0.0,0.0
1664627615034,-0.19433594,-0.27246094,0.9296875,0.0,0.0625,0.0625,-90.3125,-15.5625,-95.75
1664627615067,-0.19824219,-0.2734375,0.9326172,0.0,0.0625,0.21875,0.0,0.0,0.0
1664627615093,-0.19335938,-0.26464844,0.95214844,0.125,0.125,-0.0625,0.0,0.0,0.0
1664627615156,-0.19433594,-0.27441406,0.9423828,-0.21875,-0.15625,0.0,0.0,0.0,0.0
1664627615184,-0.19335938,-0.25976562,0.94433594,-0.15625,0.125,-0.125,0.0,0.0,0.0
1664627615214,-0.20410156,-0.2626953,0.93847656,0.0,-0.15625,-0.6875,0.0,0.0,0.0
1664627615273,-0.18945312,-0.27929688,0.94921875,0.125,-0.15625,-0.5625,0.0,0.0,0.0
1664627615303,-0.18847656,-0.2734375,0.94433594,0.25,0.0,-0.75,0.0,0.0,0.0
1664627615340,-0.19433594,-0.2685547,0.9345703,0.1875,0.3125,-0.5625,0.0,0.0,0.0
1664627615394,-0.18945312,-0.26367188,0.94628906,0.0625,-0.15625,-0.5625,0.0,0.0,0.0
1664627615423,-0.18945312,-0.2607422,0.94628906,0.0625,-0.15625,-0.4375,0.0,0.0,0.0
1664627615454,-0.1953125,-0.26464844,0.94433594,0.0,0.125,-0.625,0.0,0.0,0.0
1664627615515,-0.1953125,-0.26367188,0.9326172,0.0,-0.03125,-0.75,-90.4375,-15.25,-96.1875
1664627615544,-0.18457031,-0.26953125,0.94628906,-0.15625,-0.21875,-0.8125,0.0,0.0,0.0
1664627615574,-0.18261719,-0.26171875,0.93652344,-0.21875,-0.03125,-0.75,0.0,0.0,0.0
1664627615634,-0.16503906,-0.2783203,0.94140625,-0.78125,1.96875,-1.40625,0.0,0.0,0.0
1664627615663,-0.20410156,-0.28027344,0.9326172,-1.5,3.625,-1.65625,0.0,0.0,0.0
1664627615694,-0.1953125,-0.2841797,0.9199219,0.25,1.0625,-1.65625,0.0,0.0,0.0
1664627615757,-0.20019531,-0.26660156,0.93066406,0.375,1.34375,-1.53125,0.0,0.0,0.0
1664627615785,-0.19140625,-0.25195312,0.9482422,0.375,0.3125,-2.21875,0.0,0.0,0.0
1664627615814,-0.19238281,-0.27734375,0.9511719,-0.03125,1.59375,-1.90625,0.0,0.0,0.0
1664627615873,-0.19726562,-0.27148438,0.9082031,-0.46875,1.28125,-1.59375,0.0,0.0,0.0
1664627615907,-0.19042969,-0.27148438,0.9472656,-0.09375,1.65625,-1.21875,0.0,0.0,0.0
1664627615933,-0.20410156,-0.25097656,0.95214844,0.0,1.40625,-1.65625,0.0,0.0,0.0
1664627615993,-0.20117188,-0.28515625,0.92285156,0.3125,0.9375,-2.09375,0.0,0.0,0.0
1664627616024,-0.22070312,-0.27246094,0.9482422,0.25,1.25,-2.5625,-89.5625,-16.9375,-95.4375
1664627616054,-0.19726562,-0.27246094,0.9355469,-0.15625,-0.65625,-3.1875,0.0,0.0,0.0
1664627616114,-0.20410156,-0.27246094,0.94628906,0.625,0.875,-2.75,0.0,0.0,0.0
1664627616143,-0.19042969,-0.26660156,0.9316406,0.5625,-0.09375,-3.25,0.0,0.0,0.0
1664627616174,-0.19042969,-0.27539062,0.94433594,0.875,0.1875,-2.8125,0.0,0.0,0.0
1664627616235,-0.20507812,-0.265625,0.93847656,1.0625,-0.15625,-1.96875,0.0,0.0,0.0
1664627616267,-0.20410156,-0.2548828,0.93652344,0.4375,-0.21875,-2.03125,0.0,0.0,0.0
1664627616294,-0.20117188,-0.2607422,0.9345703,0.625,-0.40625,-1.34375,0.0,0.0,0.0
1664627616354,-0.19433594,-0.26757812,0.9345703,0.125,-0.21875,-1.0,0.0,0.0,0.0
1664627616389,-0.21191406,-0.265625,0.95703125,0.3125,-0.34375,-0.375,0.0,0.0,0.0
1664627616413,-0.1875,-0.25683594,0.9404297,-0.15625,-1.375,0.15625,0.0,0.0,0.0
1664627616474,-0.19140625,-0.27734375,0.94628906,0.5625,-0.96875,0.59375,0.0,0.0,0.0
1664627616505,-0.1875,-0.2705078,0.9277344,-0.28125,-1.09375,0.46875,-88.1875,-15.5625,-95.75
1664627616533,-0.19238281,-0.2783203,0.9472656,-0.15625,-0.46875,-0.3125,0.0,0.0,0.0
1664627616594,-0.18847656,-0.27246094,0.9277344,-0.03125,-0.84375,-0.6875,0.0,0.0,0.0
1664627616626,-0.19238281,-0.27441406,0.9355469,0.125,-0.15625,-1.53125,0.0,0.0,0.0
1664627616655,-0.1953125,-0.27441406,0.94628906,0.0,0.375,-1.46875,0.0,0.0,0.0
1664627616714,-0.19628906,-0.27929688,0.9277344,0.0625,-0.53125,-0.875,0.0,0.0,0.0
1664627616746,-0.1875,-0.265625,0.92871094,0.125,-0.84375,-0.5625,0.0,0.0,0.0
1664627616773,-0.18847656,-0.265625,0.95703125,0.0625,-0.40625,-0.3125,0.0,0.0,0.0
1664627616835,-0.19042969,-0.26464844,0.9394531,-0.03125,0.3125,0.0625,0.0,0.0,0.0
1664627616870,-0.18652344,-0.28027344,0.9267578,-0.03125,-0.03125,0.15625,0.0,0.0,0.0
1664627616893,-0.19335938,-0.27246094,0.9375,-0.03125,-0.03125,0.21875,0.0,0.0,0.0
1664627616953,-0.19628906,-0.27734375,0.9296875,0.0,-0.28125,0.21875,0.0,0.0,0.0
1664627616984,-0.18652344,-0.27929688,0.94628906,0.125,-0.15625,0.125,0.0,0.0,0.0
1664627617014,-0.19824219,-0.27734375,0.9472656,0.1875,0.0,0.21875,-89.5625,-16.625,-94.6875
1664627617075,-0.19140625,-0.265625,0.921875,0.1875,-0.78125,0.125,0.0,0.0,0.0
1664627617106,-0.18652344,-0.2783203,0.94921875,-0.03125,-0.21875,0.59375,0.0,0.0,0.0
1664627617134,-0.18652344,-0.26953125,0.9433594,0.0,-0.09375,-0.0625,0.0,0.0,0.0
1664627617193,-0.1875,-0.27148438,0.9355469,0.25,-0.03125,-0.1875,0.0,0.0,0.0
1664627617224,-0.19140625,-0.2705078,0.9375,0.1875,-0.28125,0.34375,0.0,0.0,0.0
1664627617254,-0.18945312,-0.2734375,0.93847656,-0.28125,-0.09375,0.78125,0.0,0.0,0.0
1664627617312,-0.1875,-0.26367188,0.93359375,0.125,-0.34375,0.65625,0.0,0.0,0.0
1664627617344,-0.18945312,-0.26953125,0.93652344,-0.03125,-0.40625,0.34375,0.0,0.0,0.0
1664627617374,-0.19042969,-0.2705078,0.9345703,0.0,0.0,0.71875,0.0,0.0,0.0
1664627617433,-0.18945312,-0.27539062,0.9394531,-0.03125,-0.28125,0.15625,0.0,0.0,0.0
1664627617462,-0.1875,-0.27539062,0.9394531,-0.28125,0.5625,0.15625,0.0,0.0,0.0
1664627617494,-0.20019531,-0.2734375,0.93359375,-0.59375,-0.40625,0.125,-89.875,-14.9375,-95.125
1664627617553,-0.19824219,-0.27929688,0.9453125,-0.15625,0.0,-0.125,0.0,0.0,0.0
1664627617584,-0.19042969,-0.26953125,0.93652344,0.5,-0.09375,0.0625,0.0,0.0,0.0
1664627617612,-0.19824219,-0.2626953,0.95214844,0.125,-0.28125,0.125,0.0,0.0,0.0
1664627617676,-0.19628906,-0.26660156,0.9433594,0.3125,0.0625,0.34375,0.0,0.0,0.0
1664627617705,-0.19238281,-0.2705078,0.9453125,-0.21875,-0.09375,0.125,0.0,0.0,0.0
