# Sensor type: Thingy
# Activity type: Climbing stairs
# Activity code: 12
# Subject id: s1918275
# Notes: 
timestamp,accel_x,accel_y,accel_z,gyro_x,gyro_y,gyro_z,mag_x,mag_y,mag_z
1664985719610,-0.97265625,0.21582031,-0.048828125,6.5625,0.15625,-3.5,0.0,0.0,0.0
1664985719639,-1.0039062,0.21289062,-0.07714844,2.5625,2.90625,-2.9375,0.0,0.0,0.0
1664985719668,-0.99121094,0.23046875,-0.08496094,7.375,2.71875,-5.03125,-130.8125,10.375,-96.625
1664985719730,-0.9707031,0.19042969,-0.07324219,10.84375,4.375,-5.375,0.0,0.0,0.0
1664985719760,-0.9785156,0.24511719,-0.09375,2.0,7.5,-5.9375,0.0,0.0,0.0
1664985719790,-1.0009766,0.20898438,-0.111328125,0.40625,6.15625,-4.71875,0.0,0.0,0.0
1664985719850,-0.9667969,0.23535156,-0.125,-3.0,3.28125,-6.125,0.0,0.0,0.0
1664985719882,-0.9746094,0.15136719,-0.11230469,-5.75,5.53125,-0.8125,0.0,0.0,0.0
1664985719908,-1.0058594,0.13183594,-0.140625,1.875,1.375,2.375,0.0,0.0,0.0
1664985719970,-1.0302734,0.12402344,-0.15917969,9.625,-1.125,-1.34375,0.0,0.0,0.0
1664985720003,-0.9824219,0.15039062,-0.11328125,1.6875,4.5,-10.4375,0.0,0.0,0.0
1664985720028,-0.9980469,0.16503906,-0.15429688,-0.6875,5.1875,-8.0,0.0,0.0,0.0
1664985720059,-1.0029297,0.1640625,-0.036132812,-5.9375,5.84375,-5.875,0.0,0.0,0.0
1664985720119,-1.0654297,0.041015625,-0.09667969,8.59375,-1.46875,-2.75,0.0,0.0,0.0
1664985720158,-1.0332031,0.060546875,-0.14648438,8.96875,1.5,-16.125,0.0,0.0,0.0
1664985720209,-0.97265625,0.15136719,-0.041992188,3.09375,5.1875,-19.78125,-130.8125,8.5625,-100.375
1664985720241,-0.9638672,0.12988281,-0.072265625,-3.90625,1.9375,-9.21875,0.0,0.0,0.0
1664985720271,-1.03125,0.123046875,-0.20214844,11.34375,4.4375,-4.59375,0.0,0.0,0.0
1664985720300,-0.98535156,0.072265625,-0.06738281,10.3125,11.09375,-7.71875,0.0,0.0,0.0
1664985720367,-0.9550781,0.083984375,-0.13574219,-6.4375,15.375,-9.21875,0.0,0.0,0.0
1664985720391,-0.9980469,0.09863281,-0.17285156,0.46875,17.5,-4.96875,0.0,0.0,0.0
1664985720419,-0.9902344,0.1015625,-0.08203125,11.09375,12.8125,2.71875,0.0,0.0,0.0
1664985720479,-1.0,0.07910156,-0.072265625,3.65625,12.5625,5.21875,0.0,0.0,0.0
1664985720513,-0.9873047,0.12207031,-0.12402344,-12.84375,15.84375,6.75,0.0,0.0,0.0
1664985720539,-0.984375,0.064453125,-0.14160156,-10.09375,18.46875,9.5,0.0,0.0,0.0
1664985720600,-1.0585938,0.115234375,-0.08300781,-7.78125,18.71875,15.0625,0.0,0.0,0.0
1664985720635,-1.0166016,0.09667969,-0.12402344,-18.875,23.0625,17.8125,0.0,0.0,0.0
1664985720693,-1.2177734,0.11230469,-0.2109375,-19.71875,25.4375,17.125,-134.875,9.8125,-102.9375
1664985720721,-1.3828125,-0.017578125,-0.115234375,-1.90625,14.9375,10.1875,0.0,0.0,0.0
1664985720749,-1.4609375,0.20800781,0.07421875,-0.375,-7.8125,5.53125,0.0,0.0,0.0
1664985720782,-1.3994141,0.13964844,0.05859375,-28.75,-55.75,13.21875,0.0,0.0,0.0
1664985720840,-1.1679688,0.31640625,0.0859375,-25.71875,-106.21875,7.625,0.0,0.0,0.0
1664985720870,-1.1962891,0.3798828,-0.22070312,-22.15625,-139.59375,-9.0625,0.0,0.0,0.0
1664985720913,-1.3388672,0.26367188,-0.17578125,-15.9375,-148.15625,-22.0625,0.0,0.0,0.0
1664985720963,-1.3564453,0.19140625,-0.18847656,-8.4375,-122.9375,-52.1875,0.0,0.0,0.0
1664985720990,-1.3740234,-0.05078125,0.016601562,116.8125,-200.03125,-64.71875,0.0,0.0,0.0
1664985721020,-0.7988281,0.4951172,0.33984375,76.09375,-207.53125,-74.96875,0.0,0.0,0.0
1664985721082,-0.8779297,0.22167969,0.07128906,20.84375,-154.8125,-57.5,0.0,0.0,0.0
1664985721110,-0.75097656,-0.06347656,0.18945312,31.90625,-181.09375,-31.9375,0.0,0.0,0.0
1664985721139,-0.4345703,0.061523438,0.10449219,47.28125,-156.75,-29.5625,0.0,0.0,0.0
1664985721199,-0.42089844,0.17871094,0.2841797,66.28125,-114.8125,-14.59375,-104.375,8.875,-71.4375
1664985721231,-0.34472656,0.103515625,0.41015625,40.4375,-56.90625,-25.84375,0.0,0.0,0.0
1664985721263,-0.16601562,0.005859375,0.6904297,43.9375,34.53125,-32.90625,0.0,0.0,0.0
1664985721319,0.015625,-0.0234375,0.24902344,16.40625,126.625,-20.40625,0.0,0.0,0.0
1664985721350,-1.9892578,0.043945312,1.3925781,1.5,-18.75,9.875,0.0,0.0,0.0
1664985721382,-1.0888672,0.61816406,1.0791016,25.0625,96.0625,-22.46875,0.0,0.0,0.0
1664985721441,-0.1328125,0.13183594,0.053710938,-64.96875,161.84375,-16.4375,0.0,0.0,0.0
1664985721470,-1.7041016,-0.07421875,0.23730469,-62.40625,109.0,49.3125,0.0,0.0,0.0
1664985721499,-0.9316406,0.103515625,0.26464844,2.375,84.03125,15.5625,0.0,0.0,0.0
1664985721560,-0.7792969,0.19628906,0.20996094,-23.75,102.40625,27.6875,0.0,0.0,0.0
1664985721591,-0.9638672,0.057617188,0.13964844,-67.875,134.8125,26.53125,0.0,0.0,0.0
1664985721619,-0.87597656,0.1328125,0.06738281,-66.65625,105.75,39.15625,0.0,0.0,0.0
1664985721679,-0.8027344,0.0625,0.047851562,-38.71875,96.46875,49.0,-125.875,9.625,-89.3125
1664985721710,-1.1572266,-0.15234375,0.034179688,-9.96875,66.34375,51.75,0.0,0.0,0.0
1664985721741,-1.0048828,-0.0107421875,0.07714844,56.875,20.125,8.84375,0.0,0.0,0.0
1664985721800,-0.9433594,0.19042969,0.22753906,16.78125,47.09375,2.25,0.0,0.0,0.0
1664985721831,-1.0732422,0.091796875,0.083984375,-14.53125,32.6875,10.78125,0.0,0.0,0.0
1664985721862,-0.9433594,0.10449219,0.09277344,3.53125,20.0,16.09375,0.0,0.0,0.0
1664985721920,-1.2802734,0.08105469,0.20507812,30.4375,59.0,9.8125,0.0,0.0,0.0
1664985721949,-1.6025391,0.25195312,0.1328125,-1.25,66.875,14.09375,0.0,0.0,0.0
1664985721981,-1.4580078,0.13964844,-0.052734375,-37.25,-6.125,-4.03125,0.0,0.0,0.0
1664985722042,-1.2158203,0.5722656,0.1015625,12.5,-68.4375,6.75,0.0,0.0,0.0
1664985722071,-1.0908203,0.3017578,0.3251953,33.84375,-96.09375,8.78125,0.0,0.0,0.0
1664985722103,-1.4101562,0.0625,0.10839844,-102.5625,-114.625,-47.4375,0.0,0.0,0.0
1664985722162,-1.3027344,-0.038085938,-0.41796875,33.5,-113.40625,-87.96875,0.0,0.0,0.0
1664985722190,-1.1025391,0.07910156,0.076171875,41.25,-157.59375,-75.875,-125.25,10.8125,-89.625
1664985722219,-0.765625,0.5517578,0.17578125,82.4375,-195.5625,-71.5,0.0,0.0,0.0
1664985722282,-0.6113281,0.21386719,0.26171875,91.71875,-175.96875,-33.59375,0.0,0.0,0.0
1664985722313,-0.69921875,0.048828125,0.20996094,8.78125,-125.625,-35.21875,0.0,0.0,0.0
1664985722340,-0.59472656,0.0,0.15039062,44.96875,-148.21875,-39.0625,0.0,0.0,0.0
1664985722401,-0.40820312,0.083984375,0.30273438,49.71875,-113.0625,-14.59375,0.0,0.0,0.0
1664985722439,-0.53515625,0.0859375,0.54296875,37.03125,-54.9375,1.9375,0.0,0.0,0.0
1664985722461,-0.18164062,0.27734375,0.51171875,38.1875,-3.3125,-4.71875,0.0,0.0,0.0
1664985722519,-0.39257812,-0.19433594,0.78515625,10.125,96.65625,-23.5,0.0,0.0,0.0
1664985722551,-1.1445312,-0.049804688,0.859375,-51.40625,73.03125,-14.34375,0.0,0.0,0.0
1664985722582,-1.4160156,0.4423828,0.8769531,-3.75,110.46875,-9.84375,0.0,0.0,0.0
1664985722640,-0.3828125,0.24023438,0.5576172,-31.6875,116.375,-31.9375,0.0,0.0,0.0
1664985722672,-0.9248047,0.060546875,0.19628906,-97.375,153.65625,44.25,-111.0,15.1875,-77.875
1664985722699,-1.4228516,0.001953125,0.13964844,-48.28125,132.0,39.71875,0.0,0.0,0.0
1664985722759,-0.9501953,0.041992188,0.08691406,-21.75,101.125,26.71875,0.0,0.0,0.0
1664985722793,-0.7050781,0.10644531,0.1953125,-41.28125,129.375,23.0625,0.0,0.0,0.0
1664985722849,-0.79296875,0.20019531,0.109375,-62.5625,119.75,39.21875,0.0,0.0,0.0
1664985722885,-0.98046875,0.103515625,-0.028320312,-44.875,98.0625,63.46875,0.0,0.0,0.0
1664985722909,-1.1210938,-0.16601562,-0.052734375,7.1875,65.78125,64.6875,0.0,0.0,0.0
1664985722944,-1.0634766,-0.044921875,-0.038085938,57.84375,40.4375,14.5625,0.0,0.0,0.0
1664985722999,-0.8847656,0.22167969,0.047851562,2.71875,83.96875,-5.09375,0.0,0.0,0.0
1664985723033,-0.95703125,0.22460938,-0.10449219,-55.375,55.46875,-4.71875,0.0,0.0,0.0
1664985723059,-1.0869141,0.01953125,0.26757812,34.03125,13.09375,14.28125,0.0,0.0,0.0
1664985723119,-1.2402344,0.12792969,0.19140625,-37.78125,33.84375,6.34375,0.0,0.0,0.0
1664985723149,-1.4873047,0.15039062,0.0625,10.96875,29.15625,6.5625,0.0,0.0,0.0
1664985723180,-1.640625,0.015625,0.14648438,-17.46875,-1.1875,2.90625,-129.875,19.0625,-101.125
1664985723242,-1.2783203,0.60546875,0.017578125,-37.0625,-57.21875,0.65625,0.0,0.0,0.0
1664985723274,-1.1572266,0.4873047,0.017578125,-4.40625,-88.46875,15.90625,0.0,0.0,0.0
1664985723299,-1.1435547,0.2783203,0.064453125,6.5625,-118.78125,-13.03125,0.0,0.0,0.0
1664985723360,-1.2519531,0.4267578,-0.2265625,-51.65625,-119.28125,-36.9375,0.0,0.0,0.0
1664985723392,-1.2929688,0.22070312,-0.109375,3.21875,-129.34375,-47.9375,0.0,0.0,0.0
1664985723420,-1.3125,-0.0078125,0.37402344,43.875,-221.28125,-61.96875,0.0,0.0,0.0
1664985723479,-0.5810547,0.51171875,-0.01953125,2.375,-169.5625,-54.34375,0.0,0.0,0.0
1664985723511,-0.67285156,0.111328125,0.0625,33.3125,-161.5,-23.875,0.0,0.0,0.0
1664985723544,-0.6191406,0.03125,0.26367188,50.15625,-170.78125,-13.3125,0.0,0.0,0.0
1664985723602,-0.3857422,0.11425781,0.31933594,55.59375,-156.3125,-20.03125,0.0,0.0,0.0
1664985723633,-0.20214844,0.119140625,0.30371094,54.6875,-78.4375,-6.96875,0.0,0.0,0.0
1664985723662,-0.16015625,0.14453125,0.70996094,37.21875,32.03125,-4.34375,-98.375,18.5,-70.125
1664985723719,-0.20703125,0.2919922,0.7080078,14.28125,127.71875,-2.21875,0.0,0.0,0.0
1664985723751,-1.9111328,0.47265625,0.6953125,20.90625,42.90625,21.90625,0.0,0.0,0.0
1664985723784,-1.0253906,0.3251953,0.71191406,-53.3125,127.96875,-36.9375,0.0,0.0,0.0
1664985723839,-0.14257812,0.18457031,0.3466797,-66.40625,133.21875,-6.59375,0.0,0.0,0.0
1664985723869,-1.9003906,-0.23242188,0.3232422,-65.3125,139.6875,25.8125,0.0,0.0,0.0
1664985723901,-0.80078125,0.047851562,0.16894531,-6.84375,92.28125,-0.4375,0.0,0.0,0.0
1664985723961,-0.6064453,0.14257812,0.18164062,8.78125,94.21875,21.15625,0.0,0.0,0.0
1664985723991,-0.87890625,0.22753906,0.14941406,-19.96875,115.09375,28.25,0.0,0.0,0.0
1664985724028,-1.1523438,0.18945312,0.02734375,-66.59375,125.96875,38.125,0.0,0.0,0.0
1664985724080,-1.1865234,-0.091796875,-0.029296875,10.53125,80.1875,35.09375,0.0,0.0,0.0
1664985724113,-1.0439453,0.025390625,0.00390625,39.96875,43.0,19.28125,0.0,0.0,0.0
1664985724141,-0.97558594,0.13574219,0.12011719,35.875,31.28125,-4.09375,0.0,0.0,0.0
1664985724200,-0.875,0.1640625,0.103515625,1.9375,39.34375,-9.21875,-127.5,17.75,-93.1875
1664985724230,-0.8720703,0.123046875,0.057617188,-18.6875,22.5625,-5.9375,0.0,0.0,0.0
1664985724260,-1.0058594,0.07519531,0.061523438,6.40625,42.96875,4.4375,0.0,0.0,0.0
1664985724324,-1.21875,-0.03125,0.22460938,4.6875,57.90625,-2.03125,0.0,0.0,0.0
1664985724352,-1.4462891,0.20507812,0.15527344,-0.25,83.0625,-6.90625,0.0,0.0,0.0
1664985724381,-1.5185547,0.28710938,0.046875,-24.84375,37.65625,0.78125,0.0,0.0,0.0
1664985724440,-1.3105469,0.36132812,0.107421875,23.90625,-40.96875,12.25,0.0,0.0,0.0
1664985724469,-1.1933594,0.21679688,0.001953125,23.375,-106.59375,18.65625,0.0,0.0,0.0
1664985724499,-1.2128906,0.27929688,0.103515625,-65.4375,-132.78125,-22.65625,0.0,0.0,0.0
1664985724560,-1.2861328,0.38085938,-0.6113281,-50.25,-107.125,-56.59375,0.0,0.0,0.0
1664985724589,-1.3164062,0.20214844,0.033203125,65.28125,-155.96875,-45.78125,0.0,0.0,0.0
1664985724622,-1.2607422,0.025390625,0.24609375,57.0625,-211.1875,-63.0,0.0,0.0,0.0
1664985724682,-0.44628906,0.35351562,0.30859375,37.71875,-190.5625,-68.0625,-117.75,15.8125,-80.0
1664985724710,-0.6816406,0.24902344,0.047851562,12.0625,-136.96875,-5.09375,0.0,0.0,0.0
1664985724743,-0.6484375,0.051757812,0.15039062,73.15625,-165.1875,4.5,0.0,0.0,0.0
1664985724802,-0.29101562,0.0234375,0.21582031,41.0,-121.53125,-18.4375,0.0,0.0,0.0
1664985724833,-0.29882812,0.15820312,0.28515625,59.75,-91.8125,18.46875,0.0,0.0,0.0
1664985724863,-0.18066406,0.14648438,0.5859375,49.4375,2.78125,8.34375,0.0,0.0,0.0
1664985724920,-0.28125,0.28710938,0.7763672,8.90625,102.09375,-0.1875,0.0,0.0,0.0
1664985724950,-1.6484375,0.6152344,0.5595703,28.125,32.53125,39.21875,0.0,0.0,0.0
1664985724982,-1.1826172,0.09667969,0.7001953,-46.09375,119.625,-32.4375,0.0,0.0,0.0
1664985725040,-0.0126953125,0.1875,0.6611328,-37.6875,117.90625,-25.34375,0.0,0.0,0.0
1664985725071,-1.4707031,-0.14550781,0.15625,-61.46875,157.6875,30.625,0.0,0.0,0.0
1664985725100,-1.1455078,0.15332031,0.26464844,-19.5,95.125,7.3125,0.0,0.0,0.0
1664985725160,-0.5908203,0.2265625,0.15722656,-16.3125,96.46875,15.78125,0.0,0.0,0.0
1664985725199,-1.0390625,0.111328125,0.12402344,-39.0625,136.03125,34.78125,-120.125,20.0,-82.5625
1664985725218,-1.1367188,0.08203125,0.049804688,-84.90625,143.0625,26.0,0.0,0.0,0.0
1664985725281,-0.9140625,0.080078125,0.032226562,1.09375,64.8125,36.1875,0.0,0.0,0.0
1664985725309,-0.9824219,0.078125,0.08496094,-11.5625,57.84375,35.6875,0.0,0.0,0.0
1664985725341,-0.92089844,-0.018554688,9.765625E-4,0.96875,38.4375,7.90625,0.0,0.0,0.0
1664985725400,-0.875,0.09472656,0.14550781,2.5625,35.375,-1.1875,0.0,0.0,0.0
1664985725435,-0.9658203,0.13378906,0.09863281,-23.28125,39.84375,-1.34375,0.0,0.0,0.0
1664985725464,-1.1064453,0.09277344,0.17480469,-1.53125,47.90625,4.6875,0.0,0.0,0.0
1664985725519,-1.1347656,0.18164062,0.15234375,13.90625,68.84375,-2.6875,0.0,0.0,0.0
1664985725551,-1.4951172,0.2939453,0.27441406,-3.75,60.84375,9.8125,0.0,0.0,0.0
1664985725579,-1.4892578,0.11816406,-0.02734375,-31.875,-7.15625,-3.1875,0.0,0.0,0.0
1664985725639,-1.2285156,0.37890625,0.04296875,12.0,-84.25,2.125,0.0,0.0,0.0
1664985725670,-1.0771484,0.3876953,0.0625,-17.84375,-108.40625,2.0,-128.6875,17.75,-95.125
1664985725700,-1.2685547,0.2841797,0.107421875,-120.0625,-71.125,-40.3125,0.0,0.0,0.0
1664985725759,-1.140625,0.18164062,-0.4345703,37.65625,-120.9375,-52.09375,0.0,0.0,0.0
1664985725791,-1.3740234,0.05859375,0.083984375,86.53125,-154.125,-62.875,0.0,0.0,0.0
1664985725821,-1.0458984,0.13867188,0.2939453,75.78125,-201.5625,-79.0,0.0,0.0,0.0
1664985725880,-0.64160156,0.5263672,0.1796875,50.8125,-177.09375,-49.5625,0.0,0.0,0.0
1664985725910,-0.703125,0.19238281,0.171875,26.34375,-142.03125,-10.9375,0.0,0.0,0.0
1664985725941,-0.74902344,-0.022460938,0.20800781,46.3125,-156.25,-6.3125,0.0,0.0,0.0
1664985726000,-0.30566406,-0.0107421875,0.3232422,59.125,-145.40625,-22.90625,0.0,0.0,0.0
1664985726030,-0.4267578,0.22460938,0.3388672,40.8125,-100.40625,0.09375,0.0,0.0,0.0
1664985726061,-0.29101562,0.16113281,0.50390625,38.125,-44.75,-2.34375,0.0,0.0,0.0
1664985726122,-0.22949219,0.021484375,0.9003906,22.6875,68.40625,-7.65625,0.0,0.0,0.0
1664985726149,-0.32910156,0.21386719,0.75683594,-10.5,142.0,5.0625,0.0,0.0,0.0
1664985726180,-2.0,0.5576172,0.4638672,-4.96875,118.8125,36.3125,-101.6875,20.4375,-71.75
1664985726242,-1.2011719,0.10253906,0.3251953,-58.71875,116.1875,-48.125,0.0,0.0,0.0
1664985726274,-0.0625,0.18164062,0.2919922,-68.625,138.96875,-14.25,0.0,0.0,0.0
1664985726300,-1.3779297,-0.072265625,0.21972656,-62.875,141.09375,57.65625,0.0,0.0,0.0
1664985726359,-1.2148438,0.028320312,0.10644531,-33.78125,111.25,12.1875,0.0,0.0,0.0
1664985726395,-0.60839844,0.1875,0.24609375,-19.3125,98.5625,12.0625,0.0,0.0,0.0
1664985726419,-0.8876953,0.115234375,0.072265625,-52.6875,119.3125,33.125,0.0,0.0,0.0
1664985726480,-1.0429688,0.09082031,-0.076171875,-56.65625,104.71875,40.03125,0.0,0.0,0.0
1664985726511,-1.1513672,0.043945312,0.0625,-4.96875,68.09375,47.28125,0.0,0.0,0.0
1664985726539,-1.0761719,0.07324219,0.025390625,17.875,43.3125,34.84375,0.0,0.0,0.0
1664985726600,-0.9433594,0.060546875,0.040039062,14.28125,34.28125,8.46875,0.0,0.0,0.0
1664985726629,-0.8925781,0.17871094,0.02734375,-4.90625,42.90625,4.625,0.0,0.0,0.0
1664985726665,-0.89941406,0.021484375,0.0625,0.65625,34.84375,5.90625,0.0,0.0,0.0
1664985726719,-1.0996094,0.020507812,0.14550781,4.4375,30.75,5.90625,-130.1875,16.25,-93.375
1664985726749,-1.2373047,0.09082031,0.109375,-2.40625,47.40625,3.78125,0.0,0.0,0.0
1664985726779,-1.4287109,0.40625,0.20019531,8.09375,52.21875,7.1875,0.0,0.0,0.0
1664985726840,-1.5332031,-0.07910156,0.06347656,-0.4375,6.15625,17.1875,0.0,0.0,0.0
1664985726870,-1.3251953,0.2939453,0.07324219,11.9375,-54.03125,1.28125,0.0,0.0,0.0
1664985726902,-1.0136719,0.34179688,0.0234375,2.90625,-80.34375,-2.875,0.0,0.0,0.0
1664985726961,-1.1835938,0.3671875,0.048828125,-62.6875,-94.5625,-35.28125,0.0,0.0,0.0
1664985726990,-1.1591797,0.32128906,-0.37304688,-23.5625,-100.40625,-45.90625,0.0,0.0,0.0
1664985727021,-1.1708984,0.33984375,-0.034179688,40.09375,-131.71875,-34.9375,0.0,0.0,0.0
1664985727080,-1.2832031,0.21777344,0.31347656,84.46875,-196.3125,-35.53125,0.0,0.0,0.0
1664985727111,-0.7792969,0.41308594,0.21484375,38.5625,-199.125,-46.53125,0.0,0.0,0.0
1664985727143,-0.7949219,0.14257812,0.15722656,6.6875,-148.4375,-23.875,0.0,0.0,0.0
1664985727198,-0.81152344,-0.0146484375,0.055664062,25.1875,-184.40625,-19.4375,-111.875,13.5625,-73.875
1664985727229,-0.18066406,0.30664062,0.2919922,50.34375,-145.46875,-35.78125,0.0,0.0,0.0
1664985727262,-0.46679688,0.18457031,0.32617188,39.0,-126.25,-2.15625,0.0,0.0,0.0
1664985727322,-0.27734375,0.11621094,0.5175781,14.15625,-59.90625,-6.65625,0.0,0.0,0.0
1664985727352,-0.30859375,0.044921875,0.6591797,25.9375,8.46875,-11.3125,0.0,0.0,0.0
1664985727380,-0.107421875,0.30273438,0.5878906,-22.15625,89.40625,-7.46875,0.0,0.0,0.0
1664985727441,-1.1162109,0.2841797,2.0,-22.90625,81.96875,18.65625,0.0,0.0,0.0
1664985727472,-1.515625,0.107421875,0.26464844,-54.09375,116.0625,-17.59375,0.0,0.0,0.0
1664985727499,0.16113281,0.4814453,0.5078125,-0.8125,100.6875,-3.8125,0.0,0.0,0.0
1664985727560,-1.0185547,-0.08984375,0.03515625,-101.28125,195.0625,14.03125,0.0,0.0,0.0
1664985727591,-1.5664062,0.072265625,0.265625,-60.8125,115.9375,13.40625,0.0,0.0,0.0
1664985727621,-0.6386719,0.18066406,0.21386719,-40.46875,110.53125,2.0,0.0,0.0,0.0
1664985727681,-0.9248047,0.12792969,0.09863281,-22.96875,123.9375,37.21875,0.0,0.0,0.0
1664985727710,-0.95996094,0.17285156,0.0625,-82.0,137.5,35.03125,-123.3125,10.375,-85.5625
1664985727741,-0.9121094,0.103515625,-0.044921875,-76.5,112.78125,44.125,0.0,0.0,0.0
1664985727800,-1.0058594,-0.059570312,0.044921875,-15.875,98.375,44.0625,0.0,0.0,0.0
1664985727830,-1.0146484,-0.053710938,0.0087890625,15.375,55.34375,31.78125,0.0,0.0,0.0
1664985727859,-1.0126953,0.16015625,0.111328125,7.5,50.65625,8.59375,0.0,0.0,0.0
1664985727919,-0.9355469,0.12011719,0.08691406,-1.90625,35.25,8.21875,0.0,0.0,0.0
1664985727951,-1.03125,0.111328125,0.091796875,-4.96875,36.71875,13.59375,0.0,0.0,0.0
1664985727979,-1.1816406,-0.015625,0.0126953125,-3.0625,41.0625,6.8125,0.0,0.0,0.0
1664985728045,-1.3574219,0.3310547,0.10546875,-13.25,53.21875,-0.1875,0.0,0.0,0.0
1664985728073,-1.5703125,0.21484375,0.041015625,-28.65625,11.875,-1.65625,0.0,0.0,0.0
1664985728101,-1.2929688,0.39941406,0.12207031,8.59375,-53.84375,13.03125,0.0,0.0,0.0
1664985728168,-1.1220703,0.24609375,-0.02734375,0.84375,-104.25,22.5625,0.0,0.0,0.0
1664985728199,-1.1279297,0.484375,-0.07714844,-95.84375,-96.21875,-19.5,-128.375,14.75,-99.1875
1664985728223,-1.0292969,0.19335938,-0.16699219,-30.96875,-72.9375,-32.3125,0.0,0.0,0.0
1664985728279,-1.1044922,0.12597656,-0.11230469,29.78125,-107.375,-55.375,0.0,0.0,0.0
1664985728311,-1.25,0.0625,0.123046875,88.375,-172.25,-53.96875,0.0,0.0,0.0
1664985728339,-0.89453125,0.43945312,0.4501953,23.1875,-183.5625,-61.46875,0.0,0.0,0.0
1664985728399,-0.79296875,0.30664062,0.10058594,-26.9375,-123.78125,-43.71875,0.0,0.0,0.0
1664985728429,-0.8515625,0.025390625,0.27246094,38.0,-147.59375,-26.9375,0.0,0.0,0.0
1664985728459,-0.59375,0.140625,0.29492188,77.625,-176.09375,3.28125,0.0,0.0,0.0
1664985728522,-0.43554688,0.061523438,0.32714844,54.71875,-123.0,-19.0,0.0,0.0,0.0
1664985728554,-0.4296875,0.099609375,0.421875,50.9375,-84.90625,-1.0,0.0,0.0,0.0
1664985728583,-0.21972656,0.2705078,0.515625,17.0,-29.8125,-19.3125,0.0,0.0,0.0
1664985728640,-0.3125,0.038085938,0.87402344,34.34375,58.6875,-15.8125,0.0,0.0,0.0
1664985728669,-0.4326172,0.22363281,1.1591797,-0.125,123.03125,-10.8125,0.0,0.0,0.0
1664985728700,-1.5976562,0.6455078,0.13378906,23.1875,37.46875,17.625,-101.25,16.375,-70.875
1664985728763,-0.69140625,0.22753906,0.515625,-21.4375,75.53125,-19.59375,0.0,0.0,0.0
1664985728791,-0.35253906,0.18359375,0.4638672,-91.9375,154.03125,8.78125,0.0,0.0,0.0
1664985728824,-1.8505859,-0.107421875,0.23828125,-72.28125,133.65625,35.15625,0.0,0.0,0.0
1664985728881,-0.9042969,0.10644531,0.21875,-30.84375,115.65625,5.78125,0.0,0.0,0.0
1664985728911,-0.7529297,0.15429688,0.1640625,-11.4375,107.78125,32.46875,0.0,0.0,0.0
1664985728949,-1.2060547,0.060546875,0.0625,-31.8125,131.875,26.34375,0.0,0.0,0.0
1664985729000,-0.953125,0.12988281,0.049804688,-47.6875,130.40625,24.21875,0.0,0.0,0.0
1664985729030,-0.97753906,0.11621094,-0.07128906,-8.375,81.71875,35.625,0.0,0.0,0.0
1664985729062,-1.0585938,0.08496094,0.09863281,14.21875,69.5,28.0625,0.0,0.0,0.0
1664985729120,-0.6484375,0.19921875,0.08984375,-7.875,44.0,31.40625,0.0,0.0,0.0
1664985729149,-1.046875,-0.0234375,-0.0029296875,11.53125,37.15625,27.15625,0.0,0.0,0.0
1664985729183,-0.99121094,0.14257812,-0.026367188,-1.0625,29.84375,-0.75,-129.4375,17.5625,-97.125
1664985729239,-1.0791016,0.12988281,0.12207031,10.0,40.375,2.59375,0.0,0.0,0.0
1664985729270,-1.3076172,0.21191406,0.12597656,24.21875,53.8125,3.21875,0.0,0.0,0.0
1664985729302,-1.3847656,0.40820312,0.3310547,11.71875,53.6875,10.3125,0.0,0.0,0.0
1664985729359,-1.6650391,-0.08496094,-0.047851562,-28.8125,-13.5625,5.96875,0.0,0.0,0.0
1664985729389,-1.2001953,0.53222656,0.09082031,-15.09375,-88.8125,-13.0625,0.0,0.0,0.0
1664985729420,-1.1533203,0.375,0.13574219,-54.09375,-92.46875,-26.4375,0.0,0.0,0.0
1664985729480,-1.2363281,0.26464844,-0.29101562,-162.0,-80.28125,-67.59375,0.0,0.0,0.0
1664985729509,-1.3564453,0.10449219,-0.103515625,69.5625,-130.25,-81.9375,0.0,0.0,0.0
1664985729547,-1.0888672,0.1328125,-9.765625E-4,121.3125,-184.28125,-78.1875,0.0,0.0,0.0
1664985729599,-0.7060547,0.32617188,0.5859375,52.96875,-194.96875,-70.03125,0.0,0.0,0.0
1664985729630,-0.7841797,0.30566406,-0.09667969,-9.28125,-137.09375,-38.96875,0.0,0.0,0.0
1664985729663,-0.67285156,-0.05078125,0.091796875,77.625,-153.34375,-35.40625,0.0,0.0,0.0
1664985729721,-0.6201172,-0.064453125,0.25,68.90625,-153.9375,-46.15625,-108.3125,10.6875,-72.9375
1664985729751,-0.5292969,0.103515625,0.3955078,68.71875,-110.375,-53.3125,0.0,0.0,0.0
1664985729781,0.028320312,0.083984375,0.3955078,37.28125,-16.96875,-35.53125,0.0,0.0,0.0
1664985729842,-0.19824219,0.018554688,0.6953125,33.375,85.9375,-3.6875,0.0,0.0,0.0
1664985729872,-0.42578125,0.2841797,0.7841797,5.1875,158.1875,27.5,0.0,0.0,0.0
1664985729905,-2.0,0.2841797,-0.45117188,-71.625,61.625,42.90625,0.0,0.0,0.0
1664985729960,-0.11816406,0.40527344,0.47851562,-60.1875,93.96875,-32.125,0.0,0.0,0.0
1664985729994,-0.5283203,0.017578125,-0.01171875,-99.5625,174.84375,31.65625,0.0,0.0,0.0
1664985730027,-1.8339844,-0.28125,0.18652344,-40.375,101.65625,57.65625,0.0,0.0,0.0
1664985730080,-0.6669922,0.17480469,0.14453125,-13.75,99.46875,20.375,0.0,0.0,0.0
1664985730110,-0.7050781,0.115234375,0.12695312,-13.3125,113.09375,52.0,0.0,0.0,0.0
1664985730143,-1.1201172,0.05859375,-0.001953125,-55.4375,132.8125,52.59375,0.0,0.0,0.0
1664985730201,-1.0498047,0.11035156,-0.009765625,-39.6875,87.6875,52.15625,-125.875,14.5625,-89.3125
1664985730229,-0.9013672,-0.01171875,0.030273438,29.15625,39.65625,36.59375,0.0,0.0,0.0
1664985730262,-1.015625,0.09375,-0.015625,30.9375,10.90625,20.6875,0.0,0.0,0.0
1664985730319,-0.86328125,0.30664062,0.140625,18.125,15.0625,-0.5,0.0,0.0,0.0
1664985730350,-0.96875,0.0029296875,0.12695312,21.03125,35.25,8.09375,0.0,0.0,0.0
1664985730380,-1.046875,0.052734375,0.11621094,13.40625,32.34375,7.5,0.0,0.0,0.0
1664985730439,-1.1796875,0.059570312,0.061523438,9.875,61.5625,1.15625,0.0,0.0,0.0
1664985730469,-1.3330078,0.2685547,0.19140625,27.5625,57.40625,11.34375,0.0,0.0,0.0
1664985730499,-1.5087891,0.22753906,0.14550781,-16.3125,29.65625,10.125,0.0,0.0,0.0
1664985730560,-1.3857422,0.4404297,-0.12695312,-3.125,-23.75,11.40625,0.0,0.0,0.0
1664985730590,-1.0224609,0.25390625,-0.03125,52.0,-72.15625,25.625,0.0,0.0,0.0
1664985730621,-1.1367188,0.27441406,0.17773438,21.59375,-103.71875,7.25,0.0,0.0,0.0
1664985730681,-1.3603516,0.33789062,0.0234375,-92.4375,-81.125,-53.125,0.0,0.0,0.0
1664985730710,-1.1904297,0.29785156,-0.37304688,-55.125,-78.6875,-83.375,-126.4375,19.5625,-93.5
1664985730739,-1.2373047,-0.029296875,0.08105469,62.78125,-160.28125,-93.03125,0.0,0.0,0.0
1664985730801,-0.8017578,0.3466797,0.20410156,71.59375,-193.0,-78.25,0.0,0.0,0.0
1664985730832,-0.7001953,0.2890625,0.1484375,40.34375,-169.5,-42.25,0.0,0.0,0.0
1664985730858,-0.7060547,0.1796875,0.12402344,49.84375,-178.90625,-28.59375,0.0,0.0,0.0
1664985730888,-0.4580078,0.13769531,0.24902344,51.625,-167.75,-19.59375,0.0,0.0,0.0
1664985730954,-0.5390625,0.13671875,0.42382812,59.90625,-132.21875,-16.96875,0.0,0.0,0.0
1664985730984,-0.18359375,0.06347656,0.5292969,45.28125,-42.25,-6.84375,0.0,0.0,0.0
1664985731012,-0.15136719,0.18261719,0.5605469,-2.75,75.125,-10.5,0.0,0.0,0.0
1664985731071,-0.8457031,0.24707031,1.8623047,-30.71875,149.46875,20.5,0.0,0.0,0.0
1664985731102,-1.6679688,0.5,0.061523438,-43.46875,114.5,6.21875,0.0,0.0,0.0
1664985731132,-0.32128906,0.31445312,0.40527344,-26.625,80.96875,9.625,0.0,0.0,0.0
1664985731190,-0.90527344,0.015625,-0.0068359375,-62.46875,168.5,43.0,-112.9375,20.0,-76.25
1664985731224,-1.4560547,0.026367188,0.16699219,-52.6875,123.40625,21.53125,0.0,0.0,0.0
1664985731251,-0.6875,0.12597656,0.21582031,-26.25,109.84375,12.125,0.0,0.0,0.0
1664985731309,-0.8544922,0.16503906,0.13183594,-26.625,127.25,35.15625,0.0,0.0,0.0
1664985731339,-0.95410156,0.107421875,-0.0068359375,-46.59375,114.71875,46.90625,0.0,0.0,0.0
1664985731369,-0.97265625,0.087890625,0.034179688,-17.34375,90.5625,55.21875,0.0,0.0,0.0
1664985731429,-1.0195312,0.0107421875,0.08203125,25.5625,57.59375,37.46875,0.0,0.0,0.0
1664985731459,-0.96875,-0.020507812,-0.001953125,11.03125,50.15625,6.9375,0.0,0.0,0.0
1664985731551,-1.015625,0.2265625,0.13085938,16.09375,38.1875,2.65625,0.0,0.0,0.0
1664985731557,-1.0019531,0.09375,0.0146484375,-19.71875,32.15625,7.3125,0.0,0.0,0.0
1664985731582,-1.0917969,0.20214844,0.15527344,-2.09375,46.875,6.34375,0.0,0.0,0.0
1664985731608,-1.375,0.2548828,0.052734375,-9.46875,64.5,9.09375,0.0,0.0,0.0
1664985731671,-1.40625,0.059570312,0.0859375,10.78125,24.53125,20.25,0.0,0.0,0.0
1664985731702,-1.3916016,0.44335938,0.009765625,-26.4375,-37.6875,-7.71875,-129.0,21.0625,-100.6875
1664985731729,-1.1367188,0.64453125,0.17480469,7.6875,-72.15625,-2.46875,0.0,0.0,0.0
1664985731792,-1.1269531,0.48046875,0.21289062,-80.21875,-105.375,-19.53125,0.0,0.0,0.0
1664985731819,-1.171875,0.33203125,-0.18066406,-106.09375,-103.15625,-44.21875,0.0,0.0,0.0
1664985731849,-0.9873047,0.28320312,-0.30664062,0.53125,-105.3125,-21.75,0.0,0.0,0.0
1664985731908,-1.1416016,0.31054688,0.28027344,38.4375,-156.4375,-26.3125,0.0,0.0,0.0
1664985731948,-0.96875,0.171875,0.4658203,5.34375,-169.625,-47.875,0.0,0.0,0.0
1664985731969,-0.7080078,0.3125,-0.109375,1.3125,-159.5625,-42.625,0.0,0.0,0.0
1664985732031,-0.67871094,0.16796875,0.19628906,27.6875,-150.53125,-19.59375,0.0,0.0,0.0
1664985732060,-0.38378906,0.068359375,0.3857422,98.375,-168.28125,-6.0,0.0,0.0,0.0
1664985732090,-0.55566406,0.044921875,0.29003906,75.0625,-135.5,4.5,0.0,0.0,0.0
1664985732153,-0.18945312,0.32421875,0.39941406,52.46875,-78.1875,-6.84375,0.0,0.0,0.0
1664985732185,-0.24121094,0.29589844,0.70996094,32.53125,9.3125,-15.9375,-97.5,20.875,-69.625
1664985732214,-0.12011719,0.19726562,0.88964844,-14.25,84.75,-12.71875,0.0,0.0,0.0
1664985732271,-1.1162109,0.32128906,1.6855469,6.46875,63.9375,15.65625,0.0,0.0,0.0
1664985732306,-2.0,0.47753906,0.92871094,-17.03125,140.96875,-16.6875,0.0,0.0,0.0
1664985732332,0.390625,0.45214844,0.30664062,-39.3125,119.3125,-26.5,0.0,0.0,0.0
1664985732391,-1.515625,-0.1328125,-0.02734375,-117.375,188.65625,67.71875,0.0,0.0,0.0
1664985732431,-1.4101562,0.015625,0.24804688,-29.8125,100.21875,27.03125,0.0,0.0,0.0
1664985732448,-0.5058594,0.19628906,0.17285156,-29.9375,105.5,9.9375,0.0,0.0,0.0
1664985732511,-0.88964844,0.005859375,0.15039062,-30.15625,129.4375,28.375,0.0,0.0,0.0
1664985732559,-0.9423828,0.15625,0.052734375,-77.40625,149.15625,35.625,0.0,0.0,0.0
1664985732572,-1.1982422,0.033203125,0.072265625,19.9375,50.09375,49.78125,0.0,0.0,0.0
1664985732629,-0.9736328,0.043945312,0.07421875,30.75,48.5,18.28125,0.0,0.0,0.0
1664985732660,-0.8857422,0.030273438,-0.056640625,45.75,34.15625,-0.125,0.0,0.0,0.0
1664985732720,-0.95703125,0.19042969,0.20800781,12.5,37.34375,-3.0,-125.875,19.25,-95.625
1664985732755,-0.94433594,0.19238281,0.052734375,-6.71875,47.09375,-3.0625,0.0,0.0,0.0
1664985732779,-1.1738281,0.103515625,0.083984375,6.46875,56.375,4.3125,0.0,0.0,0.0
1664985732810,-1.2421875,0.30664062,0.20800781,9.1875,63.71875,2.78125,0.0,0.0,0.0
1664985732870,-1.5087891,0.10644531,0.2421875,2.375,29.21875,14.375,0.0,0.0,0.0
1664985732902,-1.3701172,0.22851562,-0.020507812,-8.875,-43.15625,-3.5625,0.0,0.0,0.0
1664985732930,-1.2089844,0.50878906,0.19335938,20.96875,-90.90625,3.28125,0.0,0.0,0.0
1664985732989,-1.1826172,0.4248047,0.095703125,-51.96875,-110.1875,-19.0,0.0,0.0,0.0
1664985733022,-1.2412109,0.22363281,-0.30273438,-88.09375,-81.1875,-70.75,0.0,0.0,0.0
1664985733082,-1.1728516,0.234375,-0.23925781,31.84375,-105.65625,-62.15625,0.0,0.0,0.0
1664985733110,-1.4023438,-0.06347656,0.22460938,104.125,-175.96875,-88.09375,0.0,0.0,0.0
1664985733140,-0.6201172,0.49023438,0.39746094,69.0625,-211.4375,-81.3125,0.0,0.0,0.0
1664985733200,-0.6113281,0.390625,0.07128906,0.28125,-135.75,-41.6875,-117.625,12.5,-80.4375
1664985733229,-0.74609375,-0.024414062,0.22753906,45.53125,-139.84375,-28.21875,0.0,0.0,0.0
1664985733260,-0.6035156,-0.06640625,0.3095703,69.375,-155.40625,-32.90625,0.0,0.0,0.0
1664985733290,-0.35839844,0.08886719,0.32128906,62.59375,-114.15625,-32.0,0.0,0.0,0.0
1664985733351,-0.24511719,0.12695312,0.43847656,51.375,-32.71875,-20.15625,0.0,0.0,0.0
1664985733383,-0.27539062,0.01171875,0.6699219,25.0,59.25,-11.78125,0.0,0.0,0.0
1664985733412,-0.31835938,0.20019531,0.6904297,2.3125,141.84375,0.15625,0.0,0.0,0.0
1664985733470,-2.0,0.4189453,0.4345703,2.96875,71.09375,46.875,0.0,0.0,0.0
1664985733499,-0.79296875,0.15136719,0.51953125,-44.5,105.75,-41.65625,0.0,0.0,0.0
1664985733531,-0.36816406,0.1796875,0.171875,-55.625,119.0,18.125,0.0,0.0,0.0
1664985733592,-1.4179688,-0.09375,0.296875,-45.59375,95.1875,55.46875,0.0,0.0,0.0
1664985733622,-0.9794922,0.029296875,0.09863281,-30.65625,97.75,17.9375,0.0,0.0,0.0
1664985733651,-0.8300781,-0.0625,0.15722656,-3.1875,106.625,6.03125,0.0,0.0,0.0
1664985733711,-0.9638672,0.17773438,0.15234375,-37.84375,112.15625,21.03125,-123.625,16.375,-88.375
1664985733739,-0.9921875,0.24609375,0.14160156,-41.75,83.40625,25.1875,0.0,0.0,0.0
1664985733771,-0.8027344,0.16796875,0.08105469,-39.125,76.71875,36.65625,0.0,0.0,0.0
1664985733830,-1.0625,-0.15039062,-0.115234375,-34.6875,80.0,32.6875,0.0,0.0,0.0
1664985733859,-1.2597656,0.032226562,-0.001953125,3.28125,59.1875,31.1875,0.0,0.0,0.0
1664985733889,-0.9267578,0.203125,0.0107421875,25.1875,35.5625,11.9375,0.0,0.0,0.0
1664985733949,-0.9267578,0.13574219,-0.048828125,1.625,33.5625,16.59375,0.0,0.0,0.0
1664985733981,-0.93066406,0.07714844,-0.060546875,-4.59375,30.625,16.90625,0.0,0.0,0.0
1664985734009,-1.1152344,0.21484375,0.03125,-0.875,41.65625,17.0625,0.0,0.0,0.0
1664985734070,-1.1982422,0.10449219,0.19824219,-11.5625,49.96875,10.0,0.0,0.0,0.0
1664985734101,-1.3837891,0.12207031,0.10449219,-0.8125,53.6875,16.09375,0.0,0.0,0.0
1664985734129,-1.5703125,0.11328125,-0.083984375,-21.375,-5.625,4.1875,0.0,0.0,0.0
1664985734190,-1.15625,0.48339844,0.10839844,0.46875,-50.96875,7.5625,-130.8125,20.3125,-105.1875
1664985734221,-0.9433594,0.15039062,0.08300781,16.53125,-98.71875,22.3125,0.0,0.0,0.0
1664985734249,-1.0615234,0.25390625,-0.14160156,-28.875,-105.3125,-12.21875,0.0,0.0,0.0
1664985734310,-1.0849609,0.31347656,0.040039062,-7.78125,-70.4375,-36.03125,0.0,0.0,0.0
1664985734340,-1.0976562,0.34375,-0.3154297,-22.46875,-77.09375,-51.53125,0.0,0.0,0.0
1664985734370,-1.4492188,0.12792969,0.36816406,72.8125,-141.1875,-58.96875,0.0,0.0,0.0
1664985734428,-1.0429688,0.46972656,0.2861328,15.4375,-178.125,-72.59375,0.0,0.0,0.0
1664985734461,-0.8544922,0.25390625,0.15527344,4.75,-139.46875,-53.78125,0.0,0.0,0.0
1664985734490,-0.9199219,0.032226562,0.22460938,44.28125,-171.9375,-41.875,0.0,0.0,0.0
1664985734550,-0.7675781,0.12109375,0.31445312,57.65625,-173.21875,-28.53125,0.0,0.0,0.0
1664985734582,-0.47753906,0.08203125,0.33691406,36.375,-136.90625,-26.03125,0.0,0.0,0.0
1664985734613,-0.5361328,0.19238281,0.41015625,37.46875,-117.03125,-23.625,0.0,0.0,0.0
1664985734669,-0.1796875,0.047851562,0.44335938,19.625,-55.5,-22.15625,0.0,0.0,0.0
1664985734715,-0.27441406,-0.16210938,0.9580078,32.5625,53.375,-4.21875,-101.25,17.125,-72.1875
1664985734732,-0.7392578,0.27246094,2.0,-22.90625,75.78125,8.09375,0.0,0.0,0.0
1664985734788,-1.0283203,0.4375,0.52441406,0.09375,153.84375,-23.15625,0.0,0.0,0.0
1664985734822,-0.6591797,0.33203125,0.2939453,-22.34375,116.875,-10.4375,0.0,0.0,0.0
1664985734851,-0.90722656,0.024414062,-0.115234375,-96.8125,177.34375,-7.28125,0.0,0.0,0.0
1664985734912,-1.2880859,-0.119140625,0.2421875,-53.1875,118.75,24.34375,0.0,0.0,0.0
1664985734940,-0.80859375,0.09375,0.15429688,-39.6875,113.03125,15.375,0.0,0.0,0.0
1664985734970,-0.97265625,0.13867188,0.25,-16.375,112.53125,34.46875,0.0,0.0,0.0
1664985735031,-0.9140625,0.12402344,0.005859375,-82.71875,132.6875,39.0625,0.0,0.0,0.0
1664985735061,-0.89746094,0.037109375,0.044921875,-44.625,102.09375,45.5625,0.0,0.0,0.0
1664985735089,-0.9423828,-0.015625,0.0126953125,-30.09375,87.625,55.28125,0.0,0.0,0.0
1664985735149,-1.1162109,-0.016601562,0.09277344,-11.1875,76.15625,46.3125,0.0,0.0,0.0
1664985735182,-0.90527344,0.0107421875,0.08105469,4.125,44.90625,20.6875,-127.8125,14.75,-97.875
1664985735212,-0.984375,0.10058594,-0.017578125,-10.09375,38.6875,18.71875,0.0,0.0,0.0
1664985735269,-1.0195312,0.08203125,0.09765625,-1.65625,39.78125,11.65625,0.0,0.0,0.0
1664985735300,-1.3007812,0.047851562,0.05859375,-0.4375,46.375,7.96875,0.0,0.0,0.0
1664985735360,-1.3847656,0.3466797,0.20117188,8.03125,52.0625,4.0625,0.0,0.0,0.0
1664985735389,-1.6201172,-0.032226562,0.10546875,-20.28125,0.46875,7.25,0.0,0.0,0.0
1664985735425,-1.2783203,0.4375,0.036132812,-17.96875,-54.03125,-6.0625,0.0,0.0,0.0
1664985735449,-1.0029297,0.30273438,0.049804688,-10.9375,-104.25,7.375,0.0,0.0,0.0
1664985735509,-1.1162109,0.2734375,0.0087890625,-64.15625,-93.15625,-24.125,0.0,0.0,0.0
1664985735540,-1.2431641,-9.765625E-4,-0.32128906,11.71875,-101.8125,-51.21875,0.0,0.0,0.0
1664985735570,-1.2578125,0.10058594,0.03125,69.1875,-134.28125,-79.78125,0.0,0.0,0.0
1664985735630,-0.9980469,0.1796875,0.17871094,70.71875,-195.28125,-73.9375,0.0,0.0,0.0
1664985735665,-0.6123047,0.59375,0.25585938,31.25,-175.96875,-48.71875,0.0,0.0,0.0
1664985735689,-0.78808594,0.08691406,0.06542969,21.84375,-141.9375,-38.59375,-115.0625,13.25,-81.5
1664985735750,-0.7705078,-0.18652344,0.2626953,71.40625,-174.40625,-17.21875,0.0,0.0,0.0
1664985735781,-0.578125,-0.13085938,0.28320312,46.6875,-147.53125,-33.03125,0.0,0.0,0.0
1664985735810,-0.38671875,0.140625,0.37402344,61.3125,-118.4375,-15.53125,0.0,0.0,0.0
1664985735869,-0.2841797,0.19433594,0.5205078,45.03125,-26.4375,-15.46875,0.0,0.0,0.0
1664985735903,-0.29882812,-0.0087890625,0.79785156,17.9375,79.4375,-14.78125,0.0,0.0,0.0
1664985735934,-0.7548828,0.08691406,1.5029297,-16.6875,109.0,-0.1875,0.0,0.0,0.0
1664985735991,-1.5087891,0.17578125,0.34472656,-23.15625,92.5625,18.0,0.0,0.0,0.0
1664985736021,-0.47070312,0.2998047,0.43359375,-34.875,112.46875,-16.625,0.0,0.0,0.0
1664985736052,-0.64746094,0.12988281,-0.026367188,-76.75,165.09375,30.375,0.0,0.0,0.0
1664985736109,-1.5888672,-0.119140625,0.18457031,-49.625,125.03125,30.375,0.0,0.0,0.0
1664985736143,-0.86816406,0.13183594,0.125,-34.6875,115.09375,16.53125,0.0,0.0,0.0
1664985736169,-0.8691406,0.11816406,0.16601562,-30.71875,126.75,42.78125,-120.875,15.5,-85.6875
1664985736232,-1.1210938,0.13574219,-0.034179688,-85.65625,136.65625,47.71875,0.0,0.0,0.0
1664985736265,-0.8964844,0.17089844,0.12402344,-55.4375,72.90625,54.375,0.0,0.0,0.0
1664985736289,-0.90722656,-0.09472656,-0.01953125,-28.40625,54.1875,51.25,0.0,0.0,0.0
1664985736349,-0.96875,-0.06542969,-0.045898438,13.21875,32.34375,33.1875,0.0,0.0,0.0
1664985736387,-0.8955078,0.07324219,0.103515625,20.3125,35.75,9.5,0.0,0.0,0.0
1664985736410,-1.0390625,0.15820312,0.044921875,9.1875,33.75,8.84375,0.0,0.0,0.0
1664985736469,-1.0478516,0.32128906,0.23632812,-1.90625,36.0,6.15625,0.0,0.0,0.0
1664985736500,-1.28125,0.109375,0.15429688,-2.28125,66.9375,8.84375,0.0,0.0,0.0
1664985736529,-1.4707031,0.10839844,0.068359375,23.1875,63.46875,18.90625,0.0,0.0,0.0
1664985736590,-1.3974609,0.23242188,-0.041992188,-1.71875,-4.96875,-5.09375,0.0,0.0,0.0
1664985736618,-1.0878906,0.36035156,0.08886719,23.59375,-63.75,6.21875,0.0,0.0,0.0
1664985736655,-1.0830078,0.25097656,0.07910156,11.46875,-98.59375,5.28125,0.0,0.0,0.0
1664985736709,-1.0898438,0.3125,-0.0146484375,-71.65625,-87.34375,-39.875,-127.1875,18.1875,-97.25
1664985736742,-1.0019531,0.171875,-0.3330078,-22.28125,-87.71875,-48.125,0.0,0.0,0.0
1664985736768,-1.1728516,0.09667969,-0.0546875,39.40625,-90.40625,-61.34375,0.0,0.0,0.0
1664985736856,-1.1884766,0.07714844,0.171875,78.96875,-168.03125,-66.65625,0.0,0.0,0.0
1664985736862,-0.8515625,0.45214844,0.2578125,73.96875,-173.71875,-58.125,0.0,0.0,0.0
1664985736894,-0.86621094,0.2265625,0.16894531,-12.21875,-119.15625,-40.46875,0.0,0.0,0.0
1664985736949,-0.9121094,0.047851562,0.140625,33.96875,-159.3125,-31.9375,0.0,0.0,0.0
1664985736981,-0.6640625,-0.00390625,0.35742188,70.3125,-163.78125,-26.5,0.0,0.0,0.0
1664985737011,-0.5761719,-0.056640625,0.3408203,61.09375,-143.09375,-27.71875,0.0,0.0,0.0
1664985737071,-0.36523438,0.115234375,0.4267578,62.53125,-107.9375,-20.21875,0.0,0.0,0.0
1664985737102,-0.35058594,0.25585938,0.54589844,35.09375,-54.03125,-20.9375,0.0,0.0,0.0
1664985737130,-0.3095703,0.20117188,0.5917969,25.3125,0.0,-9.78125,0.0,0.0,0.0
1664985737189,-0.31347656,0.11816406,0.9863281,1.5,89.53125,-12.96875,-96.75,19.0625,-72.375
1664985737218,-1.2890625,0.25976562,0.8486328,-41.15625,-4.71875,17.75,0.0,0.0,0.0
1664985737248,-0.99316406,0.34472656,1.2783203,16.21875,97.09375,-6.59375,0.0,0.0,0.0
1664985737309,-0.078125,0.48339844,0.5751953,-8.875,150.125,-5.75,0.0,0.0,0.0
1664985737343,-1.2148438,0.041015625,0.06933594,-124.59375,196.75,27.875,0.0,0.0,0.0
1664985737369,-1.7392578,-0.18164062,0.26757812,-52.6875,131.15625,6.625,0.0,0.0,0.0
1664985737428,-0.484375,0.18457031,0.20605469,-30.28125,113.09375,16.78125,0.0,0.0,0.0
1664985737459,-0.76953125,0.20410156,0.17871094,-43.03125,126.03125,55.40625,0.0,0.0,0.0
1664985737490,-1.0078125,0.107421875,0.10839844,-93.15625,154.65625,43.8125,0.0,0.0,0.0
1664985737549,-0.9970703,0.034179688,-0.029296875,-75.15625,116.5,50.8125,0.0,0.0,0.0
1664985737578,-1.0683594,-0.12695312,-0.0048828125,-3.125,67.25,52.09375,0.0,0.0,0.0
1664985737644,-0.9033203,-0.013671875,0.09472656,8.84375,58.6875,32.28125,0.0,0.0,0.0
1664985737674,-0.91796875,0.08984375,0.083984375,11.9375,31.28125,12.1875,0.0,0.0,0.0
1664985737699,-0.99121094,0.22851562,0.12109375,-12.65625,40.75,2.3125,-124.9375,16.5625,-96.8125
1664985737729,-1.0146484,0.046875,0.026367188,-25.65625,42.40625,3.21875,0.0,0.0,0.0
1664985737793,-1.2705078,0.08886719,0.19140625,10.0625,49.375,6.9375,0.0,0.0,0.0
1664985737822,-1.4140625,0.3671875,0.2109375,2.5,65.96875,4.5,0.0,0.0,0.0
1664985737850,-1.4882812,0.037109375,0.030273438,-2.34375,20.75,12.0,0.0,0.0,0.0
1664985737910,-1.1826172,0.36328125,0.041992188,-11.71875,-41.15625,3.53125,0.0,0.0,0.0
1664985737938,-1.09375,0.30273438,0.057617188,20.375,-88.09375,16.9375,0.0,0.0,0.0
1664985737969,-1.1699219,0.20703125,0.07910156,-36.6875,-108.0625,-12.40625,0.0,0.0,0.0
1664985738031,-1.2128906,0.23632812,-0.17773438,-88.625,-80.46875,-60.3125,0.0,0.0,0.0
1664985738064,-1.2470703,0.17480469,-0.17285156,25.75,-99.5625,-86.6875,0.0,0.0,0.0
1664985738090,-1.2021484,0.05078125,0.119140625,98.96875,-185.75,-81.625,0.0,0.0,0.0
1664985738148,-0.6298828,0.41015625,0.3828125,77.375,-195.28125,-71.25,0.0,0.0,0.0
1664985738180,-0.7392578,0.24707031,0.06347656,-5.09375,-137.46875,-35.53125,-115.5,12.8125,-80.4375
1664985738238,-0.7138672,0.048828125,0.171875,61.25,-170.0,-30.65625,0.0,0.0,0.0
1664985738271,-0.46289062,-0.091796875,0.3359375,62.3125,-163.03125,-16.5,0.0,0.0,0.0
1664985738298,-0.53027344,0.17675781,0.34277344,58.59375,-123.4375,-7.03125,0.0,0.0,0.0
1664985738328,-0.2685547,0.125,0.46191406,42.65625,-66.46875,-7.8125,0.0,0.0,0.0
1664985738390,-0.4267578,0.14160156,0.9003906,19.6875,46.96875,-9.65625,0.0,0.0,0.0
1664985738419,-0.22753906,0.29101562,0.53125,-18.875,112.53125,-6.0625,0.0,0.0,0.0
1664985738448,-1.6728516,0.328125,0.30273438,18.46875,98.0,35.25,0.0,0.0,0.0
1664985738508,-1.6533203,-0.016601562,0.5371094,-42.625,128.78125,-31.09375,0.0,0.0,0.0
1664985738541,-0.029296875,0.36035156,0.4033203,-59.71875,134.6875,-31.25,0.0,0.0,0.0
1664985738571,-1.1894531,-0.22753906,0.21777344,-48.21875,133.15625,52.65625,0.0,0.0,0.0
1664985738629,-1.1171875,0.06933594,0.14257812,-27.84375,115.9375,31.90625,0.0,0.0,0.0
1664985738661,-0.9501953,0.17675781,0.040039062,-6.71875,107.84375,22.375,0.0,0.0,0.0
1664985738690,-0.9560547,0.14355469,0.12207031,-31.75,112.21875,27.03125,-120.75,13.5625,-87.625
1664985738750,-1.0185547,0.1484375,-0.013671875,-68.6875,107.53125,36.0625,0.0,0.0,0.0
1664985738781,-1.1152344,0.057617188,0.0390625,-29.96875,65.71875,53.03125,0.0,0.0,0.0
1664985738815,-0.9277344,0.057617188,0.02734375,-16.4375,50.46875,40.9375,0.0,0.0,0.0
1664985738868,-1.015625,-0.064453125,-0.11816406,21.71875,28.96875,30.875,0.0,0.0,0.0
1664985738898,-0.91308594,0.09667969,0.026367188,18.65625,33.625,7.5625,0.0,0.0,0.0
1664985738928,-0.9667969,0.19140625,0.044921875,8.40625,24.15625,4.0625,0.0,0.0,0.0
1664985738992,-0.90722656,0.2109375,0.119140625,-4.71875,28.3125,-0.4375,0.0,0.0,0.0
1664985739026,-1.1357422,0.038085938,0.060546875,-15.09375,53.21875,3.03125,0.0,0.0,0.0
1664985739049,-1.2021484,0.31054688,0.171875,5.71875,58.875,1.4375,0.0,0.0,0.0
1664985739110,-1.4677734,0.13085938,0.23925781,9.3125,40.5,15.5625,0.0,0.0,0.0
1664985739138,-1.4101562,0.17382812,-0.07714844,-20.875,-36.03125,-1.1875,0.0,0.0,0.0
1664985739171,-1.1435547,0.421875,0.07324219,1.875,-76.1875,1.375,-127.5,15.3125,-102.0625
1664985739229,-1.1240234,0.26171875,0.064453125,-25.65625,-97.375,-7.9375,0.0,0.0,0.0
1664985739266,-1.2568359,0.203125,-0.13378906,-82.03125,-92.0,-47.75,0.0,0.0,0.0
1664985739291,-1.3632812,0.11328125,-0.35058594,60.15625,-111.03125,-68.25,0.0,0.0,0.0
1664985739349,-1.2548828,0.14453125,0.057617188,96.25,-165.53125,-71.4375,0.0,0.0,0.0
1664985739380,-0.8066406,0.43945312,0.34277344,72.8125,-196.4375,-67.34375,0.0,0.0,0.0
1664985739410,-0.71875,0.32226562,0.29882812,15.71875,-153.15625,-44.8125,0.0,0.0,0.0
1664985739470,-0.8964844,-0.018554688,0.033203125,12.9375,-145.78125,-42.3125,0.0,0.0,0.0
1664985739498,-0.64746094,-0.059570312,0.26757812,61.625,-144.90625,-36.9375,0.0,0.0,0.0
1664985739529,-0.48632812,0.12207031,0.21679688,50.875,-114.9375,-46.53125,0.0,0.0,0.0
1664985739589,-0.34570312,0.111328125,0.33789062,59.8125,-102.5,-14.25,0.0,0.0,0.0
1664985739619,-0.32910156,0.030273438,0.59277344,49.53125,-21.4375,-7.03125,0.0,0.0,0.0
1664985739650,-0.13574219,0.08203125,0.64746094,30.5625,82.8125,-0.5,0.0,0.0,0.0
1664985739709,-1.0136719,0.083984375,1.9013672,-10.21875,112.46875,23.96875,-101.375,17.0,-74.75
1664985739743,-1.5068359,0.16015625,0.31054688,-29.5625,65.46875,-14.53125,0.0,0.0,0.0
1664985739770,-0.04296875,0.48046875,0.5625,-19.125,84.59375,-28.53125,0.0,0.0,0.0
1664985739829,-0.8408203,0.038085938,0.06933594,-100.34375,153.0625,31.90625,0.0,0.0,0.0
1664985739861,-1.5361328,-0.18554688,0.35546875,-45.3125,100.9375,31.65625,0.0,0.0,0.0
1664985739920,-0.7402344,0.13183594,0.13671875,-25.46875,98.9375,16.78125,0.0,0.0,0.0
1664985739978,-0.8574219,0.05859375,0.14355469,-4.59375,100.625,23.0,0.0,0.0,0.0
1664985739982,-0.9511719,0.123046875,0.1171875,-41.34375,110.15625,21.84375,0.0,0.0,0.0
1664985740008,-0.9658203,0.17871094,0.095703125,-50.125,100.75,29.21875,0.0,0.0,0.0
1664985740068,-0.91308594,0.11816406,-0.046875,-39.5,88.96875,49.71875,0.0,0.0,0.0
1664985740099,-1.1875,9.765625E-4,-0.0234375,3.15625,75.125,52.46875,0.0,0.0,0.0
1664985740127,-1.0439453,0.11230469,-0.037109375,7.3125,73.71875,33.3125,0.0,0.0,0.0
1664985740221,-0.9248047,0.12011719,0.0078125,15.71875,34.46875,19.09375,-125.375,14.875,-95.625
1664985740225,-0.9423828,0.123046875,-0.0126953125,-2.9375,43.0,2.59375,0.0,0.0,0.0
1664985740248,-0.9628906,0.11230469,-0.06640625,-13.4375,38.25,-5.21875,0.0,0.0,0.0
1664985740346,-0.9658203,0.091796875,0.040039062,-4.84375,26.90625,-1.96875,0.0,0.0,0.0
1664985740351,-1.1064453,0.20898438,0.02734375,9.03125,13.78125,4.625,0.0,0.0,0.0
1664985740368,-1.0419922,0.091796875,0.04296875,-16.6875,38.4375,-0.6875,0.0,0.0,0.0
1664985740521,-1.1054688,0.111328125,0.032226562,2.0,26.21875,10.96875,0.0,0.0,0.0
1664985740524,-1.1943359,0.11035156,0.034179688,-4.53125,36.3125,8.46875,0.0,0.0,0.0
1664985740527,-1.6552734,0.19140625,-0.03125,-43.59375,19.8125,-2.03125,0.0,0.0,0.0
1664985740530,-1.3720703,0.14453125,0.0048828125,-23.34375,-26.3125,2.375,0.0,0.0,0.0
1664985740579,-1.2265625,0.26660156,0.1484375,-18.75,-51.34375,9.875,0.0,0.0,0.0
1664985740609,-1.1152344,0.21777344,0.06933594,-16.3125,-88.28125,-2.625,0.0,0.0,0.0
1664985740672,-1.2050781,0.13476562,0.08105469,-27.59375,-113.40625,-37.5,0.0,0.0,0.0
1664985740702,-1.0986328,0.3359375,-0.33496094,-102.90625,-60.75,-65.1875,-125.375,11.75,-94.5625
1664985740731,-1.2324219,0.10449219,-0.09277344,53.03125,-141.6875,-62.34375,0.0,0.0,0.0
1664985740789,-0.83203125,0.3642578,0.25390625,81.53125,-162.375,-67.40625,0.0,0.0,0.0
1664985740821,-0.78027344,0.12695312,0.15917969,56.0625,-154.0625,-46.53125,0.0,0.0,0.0
1664985740849,-0.66015625,0.06640625,0.15136719,6.5,-134.15625,-39.0625,0.0,0.0,0.0
1664985740910,-0.6113281,0.10058594,0.16796875,41.625,-109.4375,-28.34375,0.0,0.0,0.0
1664985740943,-0.5527344,-0.028320312,0.20214844,50.8125,-104.6875,-8.625,0.0,0.0,0.0
1664985740969,-0.39257812,0.076171875,0.20117188,57.53125,-86.25,-16.25,0.0,0.0,0.0
1664985741030,-0.24804688,0.018554688,0.31640625,46.625,-31.09375,-8.6875,0.0,0.0,0.0
1664985741064,-0.39160156,0.09765625,0.4453125,48.875,1.6875,8.84375,0.0,0.0,0.0
1664985741091,-0.59472656,0.0048828125,0.89453125,59.3125,61.1875,12.8125,0.0,0.0,0.0
1664985741149,-0.7861328,0.032226562,0.98828125,26.28125,94.15625,-0.375,0.0,0.0,0.0
1664985741181,-1.1484375,-0.052734375,0.9736328,55.78125,56.375,-3.125,-106.0625,14.75,-77.4375
1664985741211,-2.0,0.44726562,0.85839844,-15.28125,-1.53125,-28.09375,0.0,0.0,0.0
1664985741273,-0.64453125,0.74902344,0.095703125,-56.71875,-29.0625,-36.21875,0.0,0.0,0.0
1664985741300,-0.16210938,0.095703125,0.19238281,9.25,56.9375,37.8125,0.0,0.0,0.0
1664985741329,-1.4746094,-0.15527344,-0.31640625,-131.65625,128.90625,-3.0,0.0,0.0,0.0
1664985741390,-1.0527344,0.04296875,0.25195312,-6.90625,80.5625,-9.59375,0.0,0.0,0.0
1664985741425,-0.74902344,0.2705078,0.26464844,12.5625,74.21875,9.625,0.0,0.0,0.0
1664985741450,-0.81152344,0.13964844,0.20117188,-40.40625,104.78125,23.53125,0.0,0.0,0.0
1664985741510,-1.1640625,0.01171875,0.028320312,-67.9375,123.75,27.875,0.0,0.0,0.0
1664985741539,-1.0332031,-0.038085938,-0.047851562,11.09375,76.46875,27.03125,0.0,0.0,0.0
1664985741571,-0.9160156,0.22753906,0.14648438,45.15625,52.40625,21.84375,0.0,0.0,0.0
1664985741628,-0.9560547,0.19335938,-0.06347656,16.84375,73.34375,26.59375,0.0,0.0,0.0
1664985741659,-1.0712891,0.18359375,-0.09765625,19.40625,64.8125,8.90625,0.0,0.0,0.0
1664985741689,-0.9394531,0.12792969,-0.07421875,0.71875,74.21875,-2.09375,-123.4375,14.125,-95.4375
1664985741751,-0.9892578,0.16015625,-0.111328125,-20.09375,58.40625,-3.4375,0.0,0.0,0.0
1664985741779,-0.9433594,0.22753906,-0.07421875,-34.1875,63.78125,4.375,0.0,0.0,0.0
1664985741810,-1.0507812,0.0625,-0.24414062,-34.0625,55.15625,13.53125,0.0,0.0,0.0
1664985741840,-0.8642578,0.08691406,-0.080078125,-28.09375,45.15625,11.8125,0.0,0.0,0.0
1664985741901,-1.0615234,0.11816406,-0.21191406,-19.59375,40.6875,11.8125,0.0,0.0,0.0
1664985741930,-1.125,0.2626953,-0.13769531,-21.375,44.0625,12.5625,0.0,0.0,0.0
1664985741959,-1.1367188,0.32617188,0.0390625,-41.53125,40.5625,8.59375,0.0,0.0,0.0
1664985742021,-1.3974609,-0.14355469,-0.49902344,-63.96875,35.1875,10.3125,0.0,0.0,0.0
1664985742061,-1.3066406,0.026367188,-0.23144531,-9.0625,-2.46875,3.53125,0.0,0.0,0.0
1664985742080,-1.3193359,0.5332031,-0.265625,-12.21875,-39.6875,-8.625,0.0,0.0,0.0
1664985742140,-1.0136719,0.45703125,-0.107421875,-29.875,-81.1875,-15.75,0.0,0.0,0.0
1664985742207,-1.1279297,0.2421875,-0.3544922,-32.65625,-95.15625,-23.28125,-126.625,11.5625,-104.0
1664985742214,-1.09375,0.42578125,-0.1953125,-18.6875,-100.96875,-42.9375,0.0,0.0,0.0
1664985742259,-1.1337891,0.57714844,-0.08886719,-83.625,-98.34375,-55.3125,0.0,0.0,0.0
1664985742288,-1.2675781,0.28710938,-0.140625,16.9375,-169.625,-41.09375,0.0,0.0,0.0
1664985742321,-1.5546875,-0.0048828125,0.09082031,72.625,-191.59375,-84.65625,0.0,0.0,0.0
1664985742386,-1.0488281,0.36816406,0.15527344,13.15625,-217.0625,-92.1875,0.0,0.0,0.0
1664985742411,-0.7607422,0.33789062,0.111328125,34.15625,-195.5625,-64.71875,0.0,0.0,0.0
1664985742442,-0.83691406,-0.047851562,0.16601562,23.4375,-175.375,-39.5,0.0,0.0,0.0
1664985742500,-0.4423828,-0.05078125,0.099609375,62.90625,-188.0625,-41.15625,0.0,0.0,0.0
1664985742529,-0.25195312,0.037109375,0.3359375,57.71875,-124.21875,-31.5625,0.0,0.0,0.0
1664985742569,-0.23828125,0.047851562,0.35742188,64.3125,-64.34375,-14.90625,0.0,0.0,0.0
1664985742621,-0.10839844,0.033203125,0.6201172,60.84375,17.75,-17.90625,0.0,0.0,0.0
1664985742651,-0.28710938,-0.06542969,0.5205078,-16.5,102.03125,-10.9375,0.0,0.0,0.0
1664985742710,-1.4755859,-0.0068359375,1.6582031,41.0625,25.5625,28.625,-96.125,11.4375,-74.625
1664985742742,-1.7216797,0.40625,0.71191406,-29.625,139.28125,-12.84375,0.0,0.0,0.0
1664985742771,-0.08691406,0.15039062,0.20605469,-47.75,122.40625,-11.375,0.0,0.0,0.0
1664985742800,-1.4833984,-0.0107421875,0.3984375,-74.0625,130.90625,37.28125,0.0,0.0,0.0
1664985742860,-1.1416016,-0.0087890625,0.24414062,-40.1875,106.375,16.28125,0.0,0.0,0.0
1664985742891,-0.76171875,0.13574219,0.22363281,-29.1875,92.75,26.28125,0.0,0.0,0.0
1664985742920,-0.9921875,0.046875,0.20703125,-31.25,108.4375,36.0,0.0,0.0,0.0
1664985742980,-1.0019531,0.13671875,0.12402344,-81.4375,131.15625,41.5,0.0,0.0,0.0
1664985743011,-0.8847656,0.038085938,-0.0234375,-63.3125,109.0625,62.375,0.0,0.0,0.0
1664985743041,-0.9814453,-0.0703125,-0.022460938,-7.875,74.4375,61.6875,0.0,0.0,0.0
1664985743100,-1.1083984,0.052734375,0.11816406,16.28125,51.25,38.25,0.0,0.0,0.0
1664985743130,-0.9375,0.18164062,0.09082031,28.5,37.46875,10.375,0.0,0.0,0.0
1664985743189,-0.89746094,0.17871094,-0.0048828125,-8.1875,36.0625,16.15625,-123.3125,9.625,-95.625
1664985743221,-1.0009766,0.12402344,0.14257812,1.3125,42.78125,13.71875,0.0,0.0,0.0
1664985743249,-1.1591797,-9.765625E-4,0.18554688,-17.46875,61.875,11.34375,0.0,0.0,0.0
1664985743283,-1.2773438,0.12207031,0.21777344,16.15625,64.125,12.25,0.0,0.0,0.0
1664985743340,-1.4863281,0.06738281,0.20996094,2.5,18.84375,10.78125,0.0,0.0,0.0
1664985743369,-1.4335938,0.20117188,-0.080078125,-46.15625,-66.90625,-17.46875,0.0,0.0,0.0
1664985743400,-1.0957031,0.61035156,0.17480469,22.375,-103.53125,-5.75,0.0,0.0,0.0
1664985743459,-1.1503906,0.44335938,0.18457031,-69.28125,-104.4375,-30.09375,0.0,0.0,0.0
1664985743489,-1.3134766,-0.14941406,-0.40625,1.9375,-123.78125,-50.5625,0.0,0.0,0.0
1664985743521,-1.3945312,-0.19628906,-0.21582031,65.90625,-130.03125,-82.65625,0.0,0.0,0.0
1664985743582,-1.0009766,0.22460938,0.3828125,65.0,-174.75,-88.03125,0.0,0.0,0.0
1664985743612,-0.48046875,0.7285156,0.36816406,50.9375,-162.625,-58.4375,0.0,0.0,0.0
1664985743642,-0.89160156,0.034179688,0.11230469,41.65625,-137.65625,-32.1875,0.0,0.0,0.0
1664985743700,-0.6611328,-0.055664062,0.21582031,33.84375,-145.28125,-34.5,-106.1875,6.3125,-80.4375
1664985743731,-0.546875,0.0029296875,0.37890625,51.625,-137.90625,-30.40625,0.0,0.0,0.0
1664985743760,-0.32617188,0.0703125,0.3984375,56.625,-123.3125,-8.9375,0.0,0.0,0.0
1664985743820,-0.29882812,0.018554688,0.43554688,32.09375,-39.875,-4.78125,0.0,0.0,0.0
1664985743849,-0.3623047,-0.00390625,0.6816406,26.15625,45.6875,-3.0,0.0,0.0,0.0
1664985743881,-0.28808594,0.103515625,0.6328125,8.53125,117.125,-5.03125,0.0,0.0,0.0
1664985743942,-0.7910156,0.22460938,1.4902344,-56.0,164.34375,24.21875,0.0,0.0,0.0
1664985743971,-2.0,0.07714844,0.09082031,-27.84375,94.34375,6.03125,0.0,0.0,0.0
1664985744002,0.18847656,0.5058594,0.52734375,-27.1875,89.09375,-33.9375,0.0,0.0,0.0
1664985744061,-0.7011719,-0.03515625,-0.018554688,-53.0625,168.75,60.53125,0.0,0.0,0.0
1664985744091,-1.8095703,0.0078125,0.29003906,-34.75,105.21875,49.96875,0.0,0.0,0.0
1664985744120,-0.7167969,0.15820312,0.21972656,-11.0,95.5,6.8125,0.0,0.0,0.0
1664985744185,-0.83984375,0.083984375,0.10253906,-1.84375,101.78125,33.4375,-116.375,10.0625,-87.5
1664985744210,-0.92285156,0.1328125,-0.05859375,-57.03125,99.21875,34.90625,0.0,0.0,0.0
1664985744240,-1.0253906,0.23632812,0.018554688,-17.21875,63.65625,52.40625,0.0,0.0,0.0
1664985744298,-0.9970703,0.095703125,0.111328125,13.96875,52.09375,42.59375,0.0,0.0,0.0
1664985744330,-1.1132812,-0.0390625,-0.0703125,25.875,36.4375,30.4375,0.0,0.0,0.0
1664985744359,-0.8847656,0.21191406,0.11816406,-4.53125,43.125,8.65625,0.0,0.0,0.0
1664985744422,-0.9941406,0.0390625,0.037109375,2.4375,44.65625,23.71875,0.0,0.0,0.0
1664985744479,-0.984375,0.095703125,0.05078125,-1.84375,50.9375,13.28125,0.0,0.0,0.0
1664985744484,-1.0537109,0.00390625,0.12988281,-1.84375,56.75,14.625,0.0,0.0,0.0
1664985744541,-1.2011719,0.0625,0.076171875,-9.65625,68.40625,16.71875,0.0,0.0,0.0
1664985744570,-1.4570312,0.3388672,0.038085938,2.3125,60.90625,14.28125,0.0,0.0,0.0
1664985744601,-1.5058594,0.018554688,-0.024414062,-25.34375,0.71875,13.65625,0.0,0.0,0.0
1664985744660,-1.2558594,0.6513672,-0.04296875,-14.0,-50.84375,-13.375,0.0,0.0,0.0
1664985744691,-1.0449219,0.5654297,0.20703125,5.0,-98.40625,-6.375,-126.0,16.25,-100.25
1664985744719,-1.1015625,0.29101562,0.109375,-36.5,-121.90625,-24.78125,0.0,0.0,0.0
1664985744783,-1.2617188,0.19042969,-0.4873047,-142.71875,-82.84375,-84.0625,0.0,0.0,0.0
1664985744813,-1.1650391,0.23144531,-0.09863281,48.9375,-116.15625,-85.46875,0.0,0.0,0.0
1664985744845,-1.0185547,0.13378906,0.39257812,83.59375,-185.25,-101.9375,0.0,0.0,0.0
1664985744905,-0.890625,0.234375,0.14648438,55.40625,-171.09375,-67.71875,0.0,0.0,0.0
1664985744928,-0.6513672,0.23339844,0.21484375,-2.8125,-149.78125,-42.8125,0.0,0.0,0.0
1664985744961,-0.8544922,0.038085938,0.31933594,41.4375,-147.34375,-31.15625,0.0,0.0,0.0
1664985745034,-0.6015625,-0.040039062,0.2109375,66.75,-165.78125,-24.6875,0.0,0.0,0.0
1664985745051,-0.29101562,0.125,0.39648438,33.6875,-108.46875,-32.4375,0.0,0.0,0.0
1664985745079,-0.34472656,0.07519531,0.5136719,17.625,-34.375,-20.65625,0.0,0.0,0.0
1664985745141,-0.2841797,-0.1171875,0.80859375,40.21875,43.5625,-15.75,0.0,0.0,0.0
1664985745170,-0.08886719,0.11035156,0.5888672,18.34375,128.9375,1.09375,-97.375,13.5625,-75.9375
1664985745201,-1.9023438,0.5732422,0.9316406,-14.90625,40.9375,47.96875,0.0,0.0,0.0
1664985745260,-1.3740234,0.12109375,0.40625,-39.3125,112.78125,-26.5625,0.0,0.0,0.0
1664985745291,-0.10449219,0.18457031,0.32714844,-48.65625,125.34375,2.3125,0.0,0.0,0.0
1664985745319,-1.3652344,-0.17871094,0.16503906,-56.78125,158.625,52.53125,0.0,0.0,0.0
1664985745381,-1.1992188,0.0,0.09375,-27.65625,109.65625,9.75,0.0,0.0,0.0
1664985745411,-0.71777344,0.18554688,0.2265625,-13.375,106.78125,16.21875,0.0,0.0,0.0
1664985745447,-0.86328125,0.13085938,0.068359375,-60.4375,126.3125,36.0625,0.0,0.0,0.0
1664985745500,-0.9472656,0.13769531,-0.029296875,-58.65625,98.5625,44.53125,0.0,0.0,0.0
1664985745531,-1.0527344,0.047851562,-0.1015625,-38.59375,77.75,53.6875,0.0,0.0,0.0
1664985745561,-1.0253906,0.08691406,0.051757812,-20.65625,54.71875,48.3125,0.0,0.0,0.0
1664985745625,-1.0996094,-0.0048828125,0.02734375,-20.71875,35.625,34.78125,0.0,0.0,0.0
1664985745648,-0.9277344,0.01171875,0.020507812,15.71875,28.4375,8.96875,0.0,0.0,0.0
1664985745679,-0.95410156,0.11621094,0.038085938,16.84375,35.5625,11.71875,-124.0625,13.25,-96.9375
1664985745738,-1.0605469,0.0146484375,0.053710938,-2.75,34.40625,6.21875,0.0,0.0,0.0
1664985745770,-1.203125,0.119140625,0.06542969,-13.5625,49.78125,-0.4375,0.0,0.0,0.0
1664985745803,-1.2011719,0.42578125,0.13476562,-7.15625,53.4375,2.90625,0.0,0.0,0.0
1664985745860,-1.4199219,0.33398438,0.31152344,-20.46875,29.78125,17.625,0.0,0.0,0.0
1664985745890,-1.6884766,-0.08203125,-0.10449219,-24.90625,-40.65625,16.59375,0.0,0.0,0.0
1664985745921,-1.1328125,0.5185547,0.16015625,-4.46875,-97.5,-3.5625,0.0,0.0,0.0
1664985745982,-1.0810547,0.28320312,0.20605469,-13.75,-112.1875,-15.8125,0.0,0.0,0.0
1664985746011,-1.3730469,0.13183594,-0.17675781,-102.96875,-78.375,-81.0625,0.0,0.0,0.0
1664985746048,-1.3027344,0.10644531,-0.32226562,56.125,-123.625,-94.4375,0.0,0.0,0.0
1664985746100,-1.1943359,0.35253906,0.08300781,78.21875,-174.625,-93.8125,0.0,0.0,0.0
1664985746130,-0.83691406,0.25976562,0.4638672,100.5,-202.78125,-93.9375,0.0,0.0,0.0
1664985746159,-0.6455078,0.2626953,0.109375,12.8125,-160.0,-40.84375,-111.625,7.8125,-81.5
1664985746221,-0.7421875,-0.033203125,0.12890625,60.46875,-150.21875,-27.84375,0.0,0.0,0.0
1664985746251,-0.5078125,0.0068359375,0.3017578,78.28125,-169.5,-0.625,0.0,0.0,0.0
1664985746282,-0.36132812,0.018554688,0.49414062,67.5,-121.84375,-17.78125,0.0,0.0,0.0
1664985746343,-0.24023438,0.19042969,0.58496094,40.6875,-41.9375,-3.0,0.0,0.0,0.0
1664985746372,-0.37890625,0.056640625,0.68066406,34.03125,48.4375,-7.78125,0.0,0.0,0.0
1664985746400,-0.01953125,0.3232422,0.39160156,12.6875,165.5,-11.375,0.0,0.0,0.0
1664985746462,-2.0,0.19042969,0.5966797,10.53125,44.65625,47.71875,0.0,0.0,0.0
1664985746489,-1.0791016,0.30664062,0.83496094,-22.0625,125.28125,-39.0625,0.0,0.0,0.0
1664985746520,0.22070312,0.21875,0.0546875,-76.125,144.8125,-11.6875,0.0,0.0,0.0
1664985746580,-2.0,-0.18457031,0.16601562,-63.90625,134.4375,76.9375,0.0,0.0,0.0
1664985746611,-1.1425781,0.0078125,0.16308594,-11.3125,105.875,-5.03125,0.0,0.0,0.0
1664985746645,-0.5253906,0.33496094,0.18945312,-9.0,94.53125,22.375,0.0,0.0,0.0
1664985746700,-0.9550781,0.0859375,0.07714844,-59.9375,120.71875,42.15625,-117.625,10.6875,-87.625
1664985746760,-0.9765625,0.08691406,-0.0087890625,-63.90625,103.1875,51.8125,0.0,0.0,0.0
1664985746765,-1.0830078,-0.028320312,0.0,1.15625,75.3125,51.875,0.0,0.0,0.0
1664985746819,-0.9667969,0.045898438,0.03125,6.46875,42.84375,36.59375,0.0,0.0,0.0
1664985746850,-1.0595703,-0.049804688,-0.041015625,24.59375,33.375,10.375,0.0,0.0,0.0
1664985746881,-0.875,0.25683594,0.07910156,5.53125,39.34375,0.53125,0.0,0.0,0.0
1664985746941,-1.1748047,0.20800781,0.1875,5.0625,37.875,8.09375,0.0,0.0,0.0
1664985746970,-1.1621094,0.0390625,0.20507812,-20.21875,48.9375,5.1875,0.0,0.0,0.0
1664985747002,-1.3955078,0.234375,0.16113281,-1.3125,63.40625,14.6875,0.0,0.0,0.0
1664985747061,-1.5136719,0.043945312,0.056640625,-29.0,11.34375,17.3125,0.0,0.0,0.0
1664985747091,-1.1542969,0.45117188,0.020507812,-19.96875,-47.4375,-3.125,0.0,0.0,0.0
1664985747120,-1.0908203,0.3955078,0.12402344,21.46875,-94.0625,11.65625,0.0,0.0,0.0
1664985747182,-1.296875,0.043945312,0.051757812,-107.3125,-90.84375,-47.1875,-124.375,13.8125,-96.1875
1664985747209,-1.2275391,0.25390625,-0.4814453,-48.40625,-66.1875,-90.46875,0.0,0.0,0.0
1664985747239,-1.4775391,-0.052734375,-0.015625,95.875,-147.46875,-92.4375,0.0,0.0,0.0
1664985747300,-0.8964844,0.3701172,0.3642578,75.1875,-200.34375,-90.40625,0.0,0.0,0.0
1664985747331,-0.7324219,0.30273438,0.16894531,47.28125,-169.9375,-62.5625,0.0,0.0,0.0
1664985747364,-0.73339844,0.14453125,0.099609375,29.53125,-154.96875,-45.84375,0.0,0.0,0.0
1664985747420,-0.75097656,0.009765625,0.27148438,55.71875,-160.21875,-50.5,0.0,0.0,0.0
1664985747450,-0.4267578,-0.060546875,0.2705078,42.65625,-147.53125,-41.03125,0.0,0.0,0.0
1664985747482,-0.29296875,0.1015625,0.3984375,40.09375,-76.75,-21.5,0.0,0.0,0.0
1664985747539,-0.43359375,-0.05078125,0.6142578,42.46875,10.59375,4.8125,0.0,0.0,0.0
1664985747572,-0.20996094,0.16015625,0.46875,39.09375,98.4375,0.09375,0.0,0.0,0.0
1664985747603,-1.3339844,0.038085938,2.0,-46.9375,89.59375,29.40625,0.0,0.0,0.0
1664985747660,-1.6357422,0.5800781,0.84375,-46.59375,129.9375,-38.03125,0.0,0.0,0.0
1664985747691,-0.013671875,0.25195312,0.15039062,-42.4375,113.09375,-21.1875,-106.9375,11.0,-77.3125
1664985747720,-1.4423828,0.043945312,0.19433594,-69.09375,129.1875,68.21875,0.0,0.0,0.0
1664985747780,-1.1074219,0.009765625,0.12890625,-21.9375,106.3125,25.0625,0.0,0.0,0.0
1664985747840,-0.6386719,0.25585938,0.24902344,-28.34375,95.75,38.375,0.0,0.0,0.0
1664985747845,-0.8779297,0.0146484375,0.11816406,-61.0,124.25,43.3125,0.0,0.0,0.0
1664985747899,-0.98339844,0.0126953125,0.032226562,-50.75,95.125,41.90625,0.0,0.0,0.0
1664985747931,-0.87109375,0.013671875,-0.030273438,-39.03125,76.59375,45.75,0.0,0.0,0.0
1664985747964,-1.0498047,-0.043945312,0.021484375,3.34375,55.96875,48.25,0.0,0.0,0.0
1664985748020,-1.1054688,0.09765625,0.12402344,-1.78125,42.71875,40.625,0.0,0.0,0.0
1664985748054,-1.0419922,-0.01953125,0.08105469,7.25,30.125,14.375,0.0,0.0,0.0
1664985748080,-0.9404297,0.091796875,0.009765625,-19.0625,23.0625,3.09375,0.0,0.0,0.0
1664985748140,-1.0527344,0.12207031,0.2421875,18.0,29.34375,9.03125,0.0,0.0,0.0
1664985748174,-1.2119141,0.2763672,0.11035156,5.28125,58.28125,0.65625,0.0,0.0,0.0
1664985748205,-1.4433594,0.34179688,0.4033203,19.75,61.625,16.28125,-126.4375,12.5,-99.375
1664985748259,-1.6474609,0.013671875,-0.15722656,-83.5,-28.34375,5.40625,0.0,0.0,0.0
1664985748289,-1.1494141,0.5185547,0.08691406,-34.3125,-92.84375,-16.75,0.0,0.0,0.0
1664985748320,-1.0244141,0.4501953,0.35253906,-28.8125,-118.71875,-8.5625,0.0,0.0,0.0
1664985748379,-1.3076172,0.14746094,-0.0546875,-75.28125,-70.09375,-45.96875,0.0,0.0,0.0
1664985748409,-1.3974609,-0.2685547,-0.35546875,45.875,-115.5,-72.46875,0.0,0.0,0.0
1664985748439,-1.2402344,-0.095703125,-0.0107421875,61.875,-152.78125,-89.5,0.0,0.0,0.0
1664985748501,-0.76660156,0.5683594,0.48632812,69.5625,-197.90625,-86.3125,0.0,0.0,0.0
1664985748530,-0.43945312,0.45117188,0.19238281,50.53125,-150.90625,-43.59375,0.0,0.0,0.0
1664985748575,-0.7783203,-0.018554688,0.11328125,21.21875,-138.125,-21.25,0.0,0.0,0.0
1664985748620,-0.5810547,-0.15917969,0.26171875,67.78125,-153.59375,-28.21875,0.0,0.0,0.0
1664985748650,-0.3779297,-0.0048828125,0.36523438,68.21875,-121.09375,-18.9375,0.0,0.0,0.0
1664985748681,-0.20507812,0.11035156,0.46484375,50.46875,-47.25,-9.96875,-97.0625,10.5625,-72.0625
1664985748741,-0.26953125,0.08105469,0.6982422,40.15625,43.9375,-14.46875,0.0,0.0,0.0
1664985748801,-0.46972656,-0.03515625,0.89453125,20.625,119.90625,-0.6875,0.0,0.0,0.0
1664985748806,-1.6943359,0.6191406,0.41796875,6.75,67.78125,20.75,0.0,0.0,0.0
1664985748860,-1.2060547,0.11328125,0.36132812,-35.15625,88.90625,-8.9375,0.0,0.0,0.0
1664985748889,-0.41210938,0.18359375,0.3955078,-78.125,141.46875,-8.5,0.0,0.0,0.0
1664985748919,-1.40625,-0.038085938,0.30078125,-56.65625,128.34375,41.84375,0.0,0.0,0.0
1664985748980,-1.0292969,0.045898438,0.13476562,-28.46875,119.1875,19.625,0.0,0.0,0.0
1664985749042,-0.75390625,0.1328125,0.20019531,-13.9375,107.34375,28.84375,0.0,0.0,0.0
1664985749046,-0.9355469,0.13769531,0.1484375,-41.65625,130.0625,41.0625,0.0,0.0,0.0
1664985749099,-1.015625,0.12207031,0.015625,-72.59375,136.59375,56.1875,0.0,0.0,0.0
1664985749130,-1.0126953,0.047851562,-0.043945312,0.96875,66.09375,62.5,0.0,0.0,0.0
1664985749159,-1.0429688,-0.0078125,-0.03515625,25.125,49.90625,42.15625,0.0,0.0,0.0
1664985749220,-0.9238281,0.11425781,0.17773438,24.28125,44.34375,11.71875,-124.375,13.8125,-94.875
1664985749250,-1.0390625,0.08496094,0.14746094,8.34375,40.375,4.1875,0.0,0.0,0.0
1664985749281,-0.9580078,0.1328125,0.115234375,-13.25,44.90625,-2.75,0.0,0.0,0.0
1664985749340,-1.2324219,0.0048828125,0.08886719,3.09375,60.21875,1.8125,0.0,0.0,0.0
1664985749369,-1.3144531,0.30078125,0.10839844,13.96875,68.71875,6.40625,0.0,0.0,0.0
1664985749400,-1.5234375,0.15234375,-0.0087890625,-25.34375,6.9375,7.1875,0.0,0.0,0.0
1664985749460,-1.3251953,0.453125,0.14257812,21.21875,-57.5,-5.25,0.0,0.0,0.0
1664985749490,-1.2460938,0.24707031,0.10058594,-5.6875,-107.625,-5.875,0.0,0.0,0.0
1664985749520,-1.3378906,0.15136719,-0.024414062,-110.96875,-112.9375,-60.75,0.0,0.0,0.0
1664985749582,-1.1533203,0.25976562,-0.53125,-22.65625,-84.0,-77.40625,0.0,0.0,0.0
1664985749610,-1.3339844,-0.033203125,0.009765625,88.65625,-143.5,-96.4375,0.0,0.0,0.0
1664985749641,-0.890625,0.2109375,0.29003906,97.03125,-202.21875,-99.5,0.0,0.0,0.0
1664985749700,-0.5439453,0.43652344,0.13964844,55.15625,-173.71875,-67.59375,-114.4375,10.375,-82.125
1664985749730,-0.67578125,0.17578125,0.083984375,36.125,-149.78125,-44.09375,0.0,0.0,0.0
1664985749761,-0.6425781,-0.08300781,0.20800781,64.625,-153.46875,-32.0625,0.0,0.0,0.0
1664985749821,-0.49121094,-0.045898438,0.32226562,44.28125,-109.875,-43.71875,0.0,0.0,0.0
1664985749850,-0.33496094,0.078125,0.41503906,63.59375,-62.03125,-12.15625,0.0,0.0,0.0
1664985749879,-0.40722656,-0.072265625,0.70410156,32.09375,47.96875,-6.65625,0.0,0.0,0.0
1664985749940,-0.16015625,0.21191406,0.5654297,-5.9375,148.1875,4.3125,0.0,0.0,0.0
1664985749972,-2.0,0.08496094,-0.3984375,-42.625,84.53125,36.375,0.0,0.0,0.0
1664985749999,-0.63671875,0.099609375,0.6816406,-63.125,94.40625,-22.34375,0.0,0.0,0.0
1664985750064,-0.5214844,0.00390625,0.055664062,-69.46875,158.5,23.3125,0.0,0.0,0.0
1664985750091,-1.6152344,-0.037109375,0.20605469,-48.125,104.0,43.5,0.0,0.0,0.0
1664985750121,-0.85546875,0.08984375,0.3046875,-41.6875,94.96875,19.03125,0.0,0.0,0.0
1664985750181,-0.7265625,0.091796875,0.24902344,-65.625,109.90625,44.0,0.0,0.0,0.0
1664985750215,-0.9794922,0.0234375,-0.14355469,-59.53125,119.25,63.15625,-119.25,8.75,-85.375
1664985750239,-1.1494141,-0.12792969,0.080078125,-35.34375,90.0,51.1875,0.0,0.0,0.0
1664985750300,-1.0224609,0.00390625,0.01953125,21.21875,59.125,46.8125,0.0,0.0,0.0
1664985750329,-1.0351562,0.15234375,0.111328125,4.5,56.0,42.96875,0.0,0.0,0.0
1664985750362,-0.9667969,0.041015625,0.06738281,7.8125,33.3125,25.6875,0.0,0.0,0.0
1664985750421,-0.9589844,-0.024414062,-0.040039062,-2.8125,34.78125,10.96875,0.0,0.0,0.0
1664985750466,-1.0507812,0.13378906,0.043945312,-6.71875,24.34375,5.21875,0.0,0.0,0.0
1664985750480,-0.9667969,0.09472656,0.15722656,5.1875,40.4375,9.09375,0.0,0.0,0.0
1664985750539,-1.1933594,0.24023438,0.13671875,4.0,65.53125,11.28125,0.0,0.0,0.0
1664985750571,-1.4287109,0.16699219,0.21289062,-14.0625,60.34375,15.71875,0.0,0.0,0.0
1664985750604,-1.4814453,0.12988281,-0.08886719,-15.09375,-9.34375,-0.9375,0.0,0.0,0.0
1664985750660,-1.1777344,0.34472656,0.08691406,-5.375,-70.6875,-5.09375,0.0,0.0,0.0
1664985750689,-1.2041016,0.3203125,0.047851562,-34.0,-100.96875,-22.46875,-126.125,13.8125,-96.9375
1664985750719,-1.2783203,0.18554688,0.0029296875,-83.5,-100.0,-64.90625,0.0,0.0,0.0
1664985750781,-1.2490234,0.19238281,-0.5263672,6.34375,-113.59375,-71.90625,0.0,0.0,0.0
1664985750811,-1.1728516,0.18554688,0.1875,122.40625,-178.65625,-94.6875,0.0,0.0,0.0
1664985750842,-0.8486328,0.23925781,0.31933594,41.25,-175.5625,-69.0,0.0,0.0,0.0
1664985750901,-0.7207031,0.21582031,0.11035156,53.4375,-168.84375,-58.84375,0.0,0.0,0.0
1664985750929,-0.7421875,9.765625E-4,0.032226562,67.375,-161.6875,-54.40625,0.0,0.0,0.0
1664985750961,-0.7011719,-0.03515625,0.3203125,66.4375,-157.125,-47.25,0.0,0.0,0.0
1664985751050,-0.2998047,-0.044921875,0.2763672,63.59375,-122.15625,-44.75,0.0,0.0,0.0
1664985751054,-0.37695312,0.125,0.35058594,66.34375,-70.6875,-11.625,0.0,0.0,0.0
1664985751081,-0.37597656,-0.0029296875,0.6767578,53.03125,23.0625,-4.03125,0.0,0.0,0.0
1664985751139,-0.30273438,0.12207031,0.85546875,47.40625,104.125,1.6875,0.0,0.0,0.0
1664985751170,-1.6103516,0.23632812,1.0615234,-12.03125,63.09375,25.4375,0.0,0.0,0.0
1664985751201,-1.3789062,0.18164062,0.6357422,-14.34375,102.46875,-40.59375,-102.3125,18.1875,-74.3125
1664985751320,0.06640625,0.3671875,0.37109375,-72.53125,135.46875,-33.84375,0.0,0.0,0.0
1664985751324,-1.2490234,-0.01171875,0.0625,-74.125,158.625,71.75,0.0,0.0,0.0
1664985751329,-1.5126953,0.08886719,0.13476562,-47.5,114.375,34.71875,0.0,0.0,0.0
1664985751382,-0.6855469,0.17285156,0.14160156,-38.96875,107.34375,34.15625,0.0,0.0,0.0
1664985751412,-0.86035156,0.064453125,0.032226562,-67.875,125.03125,62.65625,0.0,0.0,0.0
1664985751443,-1.0361328,0.041992188,-0.024414062,-76.0625,102.65625,65.21875,0.0,0.0,0.0
1664985751502,-1.2353516,-0.11230469,-0.040039062,-14.96875,59.125,64.6875,0.0,0.0,0.0
1664985751533,-0.90625,-0.024414062,0.060546875,39.53125,33.375,38.6875,0.0,0.0,0.0
1664985751561,-0.83496094,0.12792969,0.036132812,7.25,46.625,19.875,0.0,0.0,0.0
1664985751623,-0.9111328,0.17675781,0.045898438,8.65625,38.6875,16.84375,0.0,0.0,0.0
1664985751683,-1.0576172,0.11425781,0.09765625,-1.3125,27.5,12.0,0.0,0.0,0.0
1664985751710,-1.0996094,-0.01171875,0.043945312,-6.71875,40.34375,9.5625,-126.3125,17.3125,-93.375
1664985751740,-1.2128906,-0.09082031,0.0107421875,-8.3125,52.15625,6.15625,0.0,0.0,0.0
1664985751769,-1.5029297,0.3330078,0.1328125,13.34375,59.4375,10.59375,0.0,0.0,0.0
1664985751801,-1.4082031,0.203125,0.19824219,-20.21875,7.4375,8.96875,0.0,0.0,0.0
1664985751865,-1.2617188,0.390625,0.11328125,-21.8125,-66.65625,-0.375,0.0,0.0,0.0
1664985751890,-1.2041016,0.46484375,0.23828125,-12.15625,-101.28125,-4.15625,0.0,0.0,0.0
1664985751919,-1.4013672,0.18945312,0.033203125,-55.5625,-116.71875,-48.40625,0.0,0.0,0.0
1664985751979,-1.2861328,0.32617188,-0.5878906,-27.25,-105.0625,-88.46875,0.0,0.0,0.0
1664985752010,-1.3632812,0.2109375,-0.06347656,48.9375,-112.8125,-96.5,0.0,0.0,0.0
1664985752040,-0.91796875,0.2109375,0.24121094,89.09375,-192.46875,-119.28125,0.0,0.0,0.0
1664985752102,-0.51464844,0.4375,0.2607422,72.0625,-177.875,-82.21875,0.0,0.0,0.0
1664985752130,-0.74316406,0.1484375,-0.10546875,-12.34375,-131.96875,-48.78125,0.0,0.0,0.0
1664985752162,-0.5683594,-0.05859375,0.25195312,57.25,-138.375,-50.90625,0.0,0.0,0.0
1664985752219,-0.4375,-0.08203125,0.2998047,59.0625,-102.5,-32.4375,-102.75,14.4375,-73.6875
1664985752250,-0.4580078,0.038085938,0.42382812,60.53125,-15.53125,-5.8125,0.0,0.0,0.0
1664985752286,-0.21289062,0.123046875,0.3330078,14.5625,69.75,10.0,0.0,0.0,0.0
1664985752341,-0.7626953,0.22949219,1.7119141,-30.90625,130.0,46.375,0.0,0.0,0.0
1664985752371,-1.7333984,0.33007812,0.27441406,-133.25,146.21875,-10.9375,0.0,0.0,0.0
1664985752399,-0.5546875,0.15527344,0.45898438,0.71875,65.59375,-0.625,0.0,0.0,0.0
1664985752461,-0.8984375,0.27539062,0.13378906,-47.625,131.625,55.90625,0.0,0.0,0.0
1664985752490,-1.2939453,-0.030273438,0.14355469,-65.8125,104.96875,52.65625,0.0,0.0,0.0
1664985752520,-0.84765625,0.083984375,0.23339844,-44.4375,101.25,50.65625,0.0,0.0,0.0
1664985752583,-0.99902344,-0.038085938,-0.041992188,-42.5625,119.3125,45.46875,0.0,0.0,0.0
1664985752611,-0.8564453,0.029296875,0.08984375,-49.5,99.53125,25.25,0.0,0.0,0.0
1664985752641,-1.0214844,0.061523438,0.12207031,-12.03125,64.625,49.84375,0.0,0.0,0.0
1664985752702,-1.1074219,0.15429688,0.07714844,0.84375,52.40625,50.875,-121.8125,16.0625,-88.6875
1664985752731,-0.8828125,0.015625,0.01953125,5.1875,26.15625,36.53125,0.0,0.0,0.0
1664985752762,-0.953125,-0.04296875,-0.025390625,-27.59375,39.40625,8.15625,0.0,0.0,0.0
1664985752791,-0.9794922,0.018554688,0.16015625,-13.875,41.625,9.3125,0.0,0.0,0.0
1664985752851,-1.234375,-0.078125,0.083984375,-2.28125,50.78125,23.0,0.0,0.0,0.0
1664985752880,-1.3710938,0.19335938,0.12597656,12.1875,68.40625,19.75,0.0,0.0,0.0
1664985752909,-1.4277344,0.25585938,0.009765625,-23.4375,45.75,10.0625,0.0,0.0,0.0
1664985752970,-1.2167969,0.4794922,0.06542969,-16.5,-38.03125,-5.5625,0.0,0.0,0.0
1664985752998,-1.0996094,0.40820312,0.19140625,-7.46875,-78.75,5.65625,0.0,0.0,0.0
1664985753030,-1.1894531,0.15234375,0.068359375,-27.34375,-126.78125,-24.625,0.0,0.0,0.0
1664985753091,-1.3427734,0.24023438,-0.2578125,-114.21875,-107.75,-75.46875,0.0,0.0,0.0
1664985753120,-1.2900391,0.20214844,-0.31835938,28.71875,-108.53125,-72.34375,0.0,0.0,0.0
1664985753150,-1.0029297,0.19042969,0.07910156,78.84375,-187.8125,-98.40625,0.0,0.0,0.0
1664985753209,-0.8183594,0.36816406,0.4091797,85.6875,-204.84375,-83.5,-113.25,12.8125,-78.0625
1664985753240,-0.69140625,0.22558594,0.0390625,15.625,-155.34375,-53.46875,0.0,0.0,0.0
1664985753270,-0.49316406,0.036132812,0.10546875,50.53125,-154.0625,-52.1875,0.0,0.0,0.0
1664985753330,-0.58203125,0.08691406,0.3173828,56.3125,-146.375,-11.3125,0.0,0.0,0.0
1664985753360,-0.57910156,0.115234375,0.38476562,72.625,-108.96875,-9.65625,0.0,0.0,0.0
1664985753391,-0.32128906,0.091796875,0.53515625,43.875,-18.375,-5.09375,0.0,0.0,0.0
1664985753450,-0.35058594,0.045898438,0.76464844,8.21875,84.28125,3.34375,0.0,0.0,0.0
1664985753481,-0.92871094,0.21679688,1.3085938,-27.25,96.90625,33.3125,0.0,0.0,0.0
1664985753509,-1.7851562,0.09472656,0.47070312,-39.375,134.5,3.78125,0.0,0.0,0.0
1664985753599,-0.49316406,0.35839844,0.5917969,-49.625,97.40625,-13.6875,0.0,0.0,0.0
1664985753603,-0.7519531,0.13867188,-0.0546875,-62.9375,164.09375,42.78125,0.0,0.0,0.0
1664985753630,-1.2421875,-0.11035156,0.12597656,-51.21875,116.9375,42.40625,0.0,0.0,0.0
1664985753695,-1.0205078,0.025390625,0.18261719,-50.90625,108.1875,26.78125,-114.625,12.9375,-76.875
1664985753723,-0.76660156,0.018554688,0.1484375,-52.375,119.5625,16.71875,0.0,0.0,0.0
1664985753749,-0.94628906,0.044921875,-0.05078125,-58.78125,107.84375,29.15625,0.0,0.0,0.0
1664985753810,-0.9980469,0.10058594,0.01171875,-59.84375,88.5,35.75,0.0,0.0,0.0
1664985753841,-1.1738281,-0.028320312,0.0029296875,-26.25,69.3125,52.71875,0.0,0.0,0.0
1664985753869,-1.0888672,0.07421875,0.049804688,23.1875,16.78125,33.90625,0.0,0.0,0.0
1664985753929,-0.8232422,0.10644531,0.018554688,-0.8125,27.5625,13.09375,0.0,0.0,0.0
1664985753960,-0.9873047,0.052734375,-0.0390625,-11.375,23.71875,8.96875,0.0,0.0,0.0
1664985753992,-0.953125,0.095703125,0.0068359375,-6.71875,23.78125,6.40625,0.0,0.0,0.0
1664985754050,-1.1005859,-0.005859375,0.14257812,-1.96875,37.8125,7.5625,0.0,0.0,0.0
1664985754081,-1.3945312,0.2705078,0.15136719,6.8125,61.4375,13.21875,0.0,0.0,0.0
1664985754112,-1.4316406,0.119140625,0.18945312,-9.21875,37.53125,19.75,0.0,0.0,0.0
1664985754173,-1.3701172,0.23925781,-0.045898438,-21.0625,-29.625,5.21875,0.0,0.0,0.0
1664985754201,-1.2382812,0.33398438,0.12109375,11.9375,-79.71875,6.5625,-126.4375,13.5625,-93.8125
1664985754230,-1.2597656,0.29492188,0.10253906,-31.6875,-126.3125,-24.625,0.0,0.0,0.0
1664985754291,-1.2988281,0.24121094,-0.20898438,-88.03125,-90.28125,-67.46875,0.0,0.0,0.0
1664985754322,-1.3945312,0.056640625,-0.3623047,34.09375,-115.125,-74.21875,0.0,0.0,0.0
1664985754349,-1.0654297,0.06347656,0.1484375,117.65625,-189.71875,-88.875,0.0,0.0,0.0
1664985754411,-0.63671875,0.36621094,0.33789062,96.125,-191.90625,-75.15625,0.0,0.0,0.0
1664985754447,-0.60546875,0.4111328,-0.08300781,10.59375,-149.96875,-39.5,0.0,0.0,0.0
1664985754471,-0.68359375,0.021484375,0.12988281,50.09375,-160.78125,-27.90625,0.0,0.0,0.0
1664985754528,-0.5205078,-0.1171875,0.33789062,41.25,-144.90625,-38.90625,0.0,0.0,0.0
1664985754558,-0.46191406,-0.024414062,0.31347656,58.21875,-96.15625,-13.875,0.0,0.0,0.0
1664985754591,-0.32226562,0.018554688,0.5546875,46.625,0.65625,-9.21875,0.0,0.0,0.0
1664985754650,-0.08691406,0.12011719,0.3095703,6.09375,111.0,-5.4375,0.0,0.0,0.0
1664985754682,-1.7275391,0.22167969,0.9980469,1.75,9.5625,47.21875,-100.8125,15.3125,-77.0
1664985754711,-1.5517578,0.0126953125,0.45410156,-70.4375,146.78125,-10.34375,0.0,0.0,0.0
1664985754770,-0.08691406,0.21972656,0.35839844,-29.625,101.4375,-7.875,0.0,0.0,0.0
1664985754800,-1.3037109,-0.045898438,0.3359375,-66.78125,138.28125,50.78125,0.0,0.0,0.0
1664985754830,-1.2050781,-0.0546875,0.140625,-63.625,111.6875,16.65625,0.0,0.0,0.0
1664985754890,-0.6904297,0.123046875,0.19335938,-23.625,93.3125,21.59375,0.0,0.0,0.0
1664985754919,-0.8574219,0.046875,0.09765625,-43.59375,108.125,41.3125,0.0,0.0,0.0
1664985754949,-1.0683594,0.08984375,-0.0048828125,-41.53125,89.78125,37.28125,0.0,0.0,0.0
1664985755011,-0.94140625,0.056640625,-0.055664062,-15.21875,71.53125,36.125,0.0,0.0,0.0
1664985755043,-0.9824219,0.17675781,0.14453125,4.75,45.46875,42.15625,0.0,0.0,0.0
1664985755070,-1.0517578,0.12597656,0.026367188,-29.375,62.5,37.03125,0.0,0.0,0.0
1664985755132,-0.9785156,0.016601562,-0.033203125,-1.125,25.0,15.5625,0.0,0.0,0.0
1664985755162,-1.0214844,0.14355469,0.02734375,-21.625,31.71875,12.8125,0.0,0.0,0.0
1664985755220,-0.99316406,0.0546875,0.0048828125,-24.1875,37.28125,9.125,-120.3125,14.75,-97.125
1664985755251,-1.1992188,0.171875,0.25097656,2.5625,41.65625,13.28125,0.0,0.0,0.0
1664985755281,-1.3300781,0.10546875,0.25976562,5.21875,43.5,15.0,0.0,0.0,0.0
1664985755316,-1.5341797,0.076171875,0.040039062,-33.03125,4.8125,9.875,0.0,0.0,0.0
1664985755371,-1.3007812,0.49023438,-0.013671875,-33.21875,-62.9375,-17.53125,0.0,0.0,0.0
1664985755402,-1.0078125,0.49023438,0.29882812,13.46875,-94.8125,11.34375,0.0,0.0,0.0
1664985755435,-1.1582031,0.18457031,0.12402344,-50.1875,-102.0625,-4.03125,0.0,0.0,0.0
1664985755492,-1.3261719,0.09863281,-0.3330078,29.09375,-144.375,-38.03125,0.0,0.0,0.0
1664985755521,-1.2333984,0.043945312,0.026367188,19.28125,-96.375,-79.84375,0.0,0.0,0.0
1664985755550,-1.1318359,0.19238281,0.25683594,43.0625,-189.28125,-82.90625,0.0,0.0,0.0
1664985755610,-0.484375,0.7441406,0.32421875,36.46875,-194.46875,-64.59375,0.0,0.0,0.0
1664985755641,-0.66503906,0.15820312,0.08300781,3.9375,-121.46875,-43.90625,0.0,0.0,0.0
1664985755673,-0.6279297,0.001953125,0.27929688,63.78125,-181.28125,8.53125,-103.625,10.375,-79.125
1664985755729,-0.50878906,0.0625,0.36621094,33.90625,-150.96875,2.90625,0.0,0.0,0.0
1664985755760,-0.40527344,0.12011719,0.44433594,48.3125,-116.40625,10.1875,0.0,0.0,0.0
1664985755793,-0.19726562,0.16210938,0.5576172,41.1875,-57.03125,17.375,0.0,0.0,0.0
1664985755885,-0.4453125,0.01953125,0.953125,46.4375,55.28125,-1.0,0.0,0.0,0.0
1664985755890,-0.4501953,0.44726562,1.2587891,-0.6875,109.0,-0.5625,0.0,0.0,0.0
1664985755913,-1.1650391,0.15039062,-0.0107421875,71.6875,104.46875,14.9375,0.0,0.0,0.0
1664985755972,-0.8779297,0.19335938,0.27539062,-84.78125,150.125,-45.65625,0.0,0.0,0.0
1664985755999,-0.6796875,-0.0234375,0.057617188,-67.21875,162.03125,-2.59375,0.0,0.0,0.0
1664985756029,-1.4580078,0.25878906,0.33007812,-27.3125,120.40625,36.84375,0.0,0.0,0.0
1664985756089,-0.8876953,0.09082031,0.15332031,-30.34375,111.125,5.96875,0.0,0.0,0.0
1664985756119,-0.83691406,0.08886719,0.20996094,-33.71875,116.3125,22.8125,0.0,0.0,0.0
1664985756149,-0.99902344,0.04296875,0.18359375,-54.65625,128.78125,26.46875,0.0,0.0,0.0
1664985756211,-0.9794922,0.06347656,-0.044921875,-61.65625,106.0,34.09375,-115.5,12.0625,-89.75
1664985756240,-0.9560547,0.06933594,0.15136719,10.3125,53.5,39.59375,0.0,0.0,0.0
1664985756269,-0.984375,0.02734375,0.0068359375,-9.40625,61.3125,28.1875,0.0,0.0,0.0
1664985756329,-0.87597656,0.052734375,0.06542969,32.53125,40.625,13.15625,0.0,0.0,0.0
1664985756361,-1.1757812,0.052734375,-0.034179688,8.03125,52.09375,4.5625,0.0,0.0,0.0
1664985756389,-0.9472656,0.25,0.09472656,-2.6875,48.25,4.6875,0.0,0.0,0.0
1664985756449,-1.2236328,0.22460938,0.2841797,7.75,55.46875,5.78125,0.0,0.0,0.0
1664985756479,-1.4228516,0.24804688,0.3017578,-0.4375,58.6875,14.21875,0.0,0.0,0.0
1664985756509,-1.4921875,-0.053710938,0.001953125,-37.375,-12.03125,12.125,0.0,0.0,0.0
1664985756573,-1.1445312,0.4169922,-0.048828125,-20.84375,-79.0,-14.40625,0.0,0.0,0.0
1664985756602,-1.0859375,0.48046875,0.19238281,-1.90625,-106.875,-4.34375,0.0,0.0,0.0
1664985756629,-1.1914062,-0.0078125,0.028320312,-76.6875,-103.09375,-28.6875,0.0,0.0,0.0
1664985756693,-1.2832031,0.06933594,-0.5,3.34375,-111.28125,-60.5,-117.4375,11.3125,-92.625
1664985756721,-1.3310547,0.14355469,0.0126953125,69.8125,-134.53125,-90.21875,0.0,0.0,0.0
1664985756752,-0.92089844,0.3310547,0.39648438,67.5,-186.46875,-99.4375,0.0,0.0,0.0
1664985756811,-0.61328125,0.40527344,0.24511719,56.75,-163.40625,-61.84375,0.0,0.0,0.0
1664985756840,-0.76660156,-0.037109375,0.07128906,37.46875,-144.125,-34.9375,0.0,0.0,0.0
1664985756869,-0.7314453,0.025390625,0.3466797,64.5625,-149.1875,-23.21875,0.0,0.0,0.0
1664985756932,-0.3798828,0.095703125,0.30078125,46.3125,-129.78125,-25.15625,0.0,0.0,0.0
1664985756960,-0.7734375,0.11425781,0.3955078,37.28125,-84.78125,-22.15625,0.0,0.0,0.0
1664985756989,-0.32910156,0.10449219,0.55566406,5.78125,-35.0625,-49.625,0.0,0.0,0.0
1664985757050,-0.17675781,-0.14355469,0.7685547,5.53125,42.28125,-25.59375,0.0,0.0,0.0
1664985757082,-0.34960938,-0.06640625,0.8251953,-2.03125,111.75,17.0,0.0,0.0,0.0
1664985757112,-1.3115234,0.2919922,0.88671875,-18.8125,73.15625,32.21875,0.0,0.0,0.0
1664985757170,-1.4238281,0.16894531,0.578125,-19.4375,119.5625,-3.4375,0.0,0.0,0.0
1664985757201,-0.57421875,0.23144531,0.18652344,-63.5625,131.21875,-7.40625,-102.3125,11.4375,-78.375
1664985757230,-1.0175781,-0.140625,0.24609375,-46.40625,126.4375,37.75,0.0,0.0,0.0
1664985757290,-0.9736328,0.17773438,0.26660156,-21.875,86.78125,43.0625,0.0,0.0,0.0
1664985757322,-0.7988281,0.052734375,0.28710938,-40.46875,90.625,35.9375,0.0,0.0,0.0
1664985757349,-0.88378906,-0.18359375,0.13085938,-56.34375,117.90625,24.65625,0.0,0.0,0.0
1664985757410,-1.0439453,-0.07128906,0.0546875,-42.9375,105.6875,27.625,0.0,0.0,0.0
1664985757440,-0.9189453,0.1796875,0.12988281,-12.46875,56.9375,38.75,0.0,0.0,0.0
1664985757469,-1.0820312,0.07519531,0.07910156,6.625,41.84375,43.0625,0.0,0.0,0.0
1664985757535,-1.0537109,0.052734375,-0.00390625,-32.1875,64.25,24.71875,0.0,0.0,0.0
1664985757571,-1.0439453,0.017578125,0.001953125,13.40625,41.25,17.5625,0.0,0.0,0.0
1664985757593,-0.99121094,0.13867188,-0.038085938,23.25,35.15625,13.21875,0.0,0.0,0.0
1664985757649,-0.9736328,0.14746094,-0.053710938,16.90625,30.375,13.53125,0.0,0.0,0.0
1664985757680,-0.92578125,0.23828125,-0.029296875,4.125,32.34375,9.5,-122.375,11.3125,-92.625
1664985757712,-0.9628906,0.18457031,-0.08691406,-19.3125,24.9375,12.375,0.0,0.0,0.0
1664985757771,-1.0400391,0.030273438,-0.0625,-8.125,28.375,13.78125,0.0,0.0,0.0
1664985757801,-1.0439453,0.095703125,0.024414062,-0.6875,24.03125,15.125,0.0,0.0,0.0
1664985757829,-1.0976562,0.15625,0.1015625,-2.40625,26.65625,19.46875,0.0,0.0,0.0
1664985757889,-1.5273438,0.17871094,0.13964844,-11.96875,27.28125,13.59375,0.0,0.0,0.0
1664985757922,-1.5693359,0.03125,0.061523438,3.09375,-20.78125,-1.0,0.0,0.0,0.0
1664985757951,-1.3818359,0.29589844,0.25585938,18.1875,-60.125,5.46875,0.0,0.0,0.0
1664985758012,-1.0791016,0.37304688,0.23046875,3.15625,-88.21875,3.90625,0.0,0.0,0.0
1664985758041,-1.1669922,0.3076172,0.051757812,-60.0,-104.15625,-30.21875,0.0,0.0,0.0
1664985758074,-1.3330078,0.16015625,-0.47070312,31.125,-115.375,-55.125,0.0,0.0,0.0
1664985758162,-1.4121094,0.14355469,-0.07128906,38.8125,-128.5,-81.3125,0.0,0.0,0.0
1664985758167,-1.0478516,0.26171875,0.34960938,72.125,-201.84375,-83.6875,0.0,0.0,0.0
1664985758196,-0.5605469,0.4267578,0.16210938,18.96875,-182.28125,-59.71875,-112.0625,12.9375,-81.375
1664985758252,-0.46875,0.19238281,0.08496094,5.34375,-126.90625,-42.4375,0.0,0.0,0.0
1664985758279,-0.6640625,0.017578125,0.15917969,48.5625,-157.78125,-10.5625,0.0,0.0,0.0
1664985758310,-0.46191406,0.018554688,0.3154297,44.125,-157.25,-5.75,0.0,0.0,0.0
1664985758370,-0.29492188,0.034179688,0.4501953,29.53125,-81.5,-4.53125,0.0,0.0,0.0
1664985758400,-0.3388672,-0.017578125,0.7675781,44.90625,1.15625,3.21875,0.0,0.0,0.0
1664985758433,-0.34472656,0.10058594,0.7285156,23.84375,102.875,-10.9375,0.0,0.0,0.0
1664985758489,-1.3427734,0.45507812,1.5097656,-13.625,63.71875,4.375,0.0,0.0,0.0
1664985758526,-1.1845703,0.15527344,0.5439453,-44.9375,147.1875,-9.0,0.0,0.0,0.0
1664985758551,-0.359375,0.18847656,0.3408203,-35.34375,120.53125,6.875,0.0,0.0,0.0
1664985758608,-1.2304688,0.14648438,0.15722656,-50.625,141.09375,48.875,0.0,0.0,0.0
1664985758638,-1.1445312,0.018554688,0.05859375,-47.5625,114.125,35.6875,0.0,0.0,0.0
1664985758670,-0.92578125,0.03125,0.111328125,-34.0625,130.125,34.96875,-112.375,13.375,-83.3125
1664985758730,-0.83984375,0.13574219,0.12109375,-46.15625,130.96875,40.28125,0.0,0.0,0.0
1664985758760,-0.9453125,0.18261719,0.046875,-54.03125,78.78125,49.3125,0.0,0.0,0.0
1664985758790,-1.0585938,-0.05078125,0.06347656,-14.25,56.875,42.09375,0.0,0.0,0.0
1664985758852,-0.94921875,-0.04296875,0.056640625,12.375,31.53125,30.0625,0.0,0.0,0.0
1664985758879,-0.9550781,0.072265625,-0.0048828125,24.34375,35.375,2.90625,0.0,0.0,0.0
1664985758909,-0.8828125,0.22558594,0.19335938,8.65625,39.40625,1.4375,0.0,0.0,0.0
1664985758969,-1.2480469,0.115234375,0.15625,2.0625,47.53125,8.40625,0.0,0.0,0.0
1664985759002,-1.3349609,0.20898438,0.20214844,9.4375,68.40625,-0.125,0.0,0.0,0.0
1664985759030,-1.4765625,0.19921875,0.30566406,5.46875,41.3125,10.53125,0.0,0.0,0.0
1664985759089,-1.3349609,0.26464844,0.040039062,-20.78125,-39.0625,0.59375,0.0,0.0,0.0
1664985759122,-1.2216797,0.36914062,0.16894531,18.21875,-83.9375,4.0,0.0,0.0,0.0
1664985759149,-1.2304688,0.107421875,0.0703125,-65.5625,-99.9375,-32.4375,0.0,0.0,0.0
1664985759209,-1.1757812,0.19628906,-0.515625,-62.9375,-82.28125,-75.53125,-121.5,14.875,-92.4375
1664985759239,-1.2324219,0.25,0.0078125,56.5625,-111.34375,-68.6875,0.0,0.0,0.0
1664985759269,-0.97753906,0.055664062,0.2783203,83.65625,-186.46875,-76.84375,0.0,0.0,0.0
1664985759332,-0.6113281,0.45410156,0.3359375,72.5,-187.5,-45.71875,0.0,0.0,0.0
1664985759362,-0.7597656,0.034179688,0.025390625,24.71875,-148.6875,-7.34375,0.0,0.0,0.0
1664985759392,-0.71191406,0.03515625,0.123046875,63.46875,-159.75,-4.59375,0.0,0.0,0.0
1664985759450,-0.3642578,0.10058594,0.30859375,28.1875,-124.40625,-16.6875,0.0,0.0,0.0
1664985759479,-0.59765625,0.15625,0.47851562,40.4375,-87.28125,-12.84375,0.0,0.0,0.0
1664985759510,-0.43359375,0.15820312,0.4560547,43.6875,-45.71875,-14.96875,0.0,0.0,0.0
1664985759571,-0.33203125,0.030273438,0.86035156,28.84375,54.1875,-15.75,0.0,0.0,0.0
1664985759599,-1.0224609,0.22753906,1.4716797,-27.53125,79.75,-2.9375,0.0,0.0,0.0
1664985759629,-0.95996094,0.2529297,0.21191406,39.40625,79.34375,12.0625,0.0,0.0,0.0
1664985759691,-0.7060547,0.2607422,0.34375,-54.65625,132.6875,-3.4375,-100.1875,17.125,-75.625
1664985759721,-0.9248047,0.13085938,0.025390625,-95.78125,171.25,26.78125,0.0,0.0,0.0
1664985759749,-1.4970703,0.05859375,0.22558594,-54.8125,133.21875,44.78125,0.0,0.0,0.0
1664985759812,-0.79003906,0.064453125,0.15820312,-45.65625,124.8125,29.09375,0.0,0.0,0.0
1664985759851,-0.78515625,0.030273438,0.12402344,-24.125,120.78125,43.875,0.0,0.0,0.0
1664985759869,-0.9404297,0.051757812,0.060546875,-62.34375,132.375,47.53125,0.0,0.0,0.0
1664985759930,-1.0136719,0.15917969,-0.036132812,-51.15625,93.1875,51.9375,0.0,0.0,0.0
1664985759960,-1.0253906,-0.09375,0.103515625,23.53125,60.03125,32.625,0.0,0.0,0.0
1664985759989,-0.93652344,0.040039062,0.10644531,27.15625,25.9375,12.4375,0.0,0.0,0.0
1664985760052,-0.88964844,0.19726562,0.21289062,6.9375,34.90625,-0.625,0.0,0.0,0.0
1664985760081,-1.0683594,-0.034179688,0.16113281,14.4375,32.5625,13.15625,0.0,0.0,0.0
1664985760110,-0.98828125,-0.018554688,-0.030273438,13.40625,46.875,2.3125,0.0,0.0,0.0
1664985760169,-1.1640625,0.26660156,-0.026367188,16.34375,44.65625,1.6875,0.0,0.0,0.0
1664985760215,-1.453125,0.40625,0.22851562,22.375,63.09375,7.0625,-122.6875,17.0,-96.8125
1664985760230,-1.4726562,0.16601562,-0.05078125,-12.84375,21.71875,10.25,0.0,0.0,0.0
1664985760289,-1.1835938,0.5029297,0.0625,4.0,-47.875,-0.375,0.0,0.0,0.0
1664985760322,-1.1835938,0.36035156,0.07714844,-3.1875,-90.46875,2.90625,0.0,0.0,0.0
1664985760350,-1.2148438,0.19042969,0.036132812,-71.125,-109.03125,-30.34375,0.0,0.0,0.0
1664985760441,-1.2177734,0.17773438,-0.4033203,-79.25,-71.78125,-68.25,0.0,0.0,0.0
1664985760448,-1.2402344,0.08984375,-0.033203125,64.125,-130.9375,-71.4375,0.0,0.0,0.0
1664985760472,-1.0195312,0.01953125,0.25390625,91.71875,-166.9375,-79.46875,0.0,0.0,0.0
1664985760531,-0.74902344,0.3046875,0.28710938,65.90625,-166.15625,-65.125,0.0,0.0,0.0
1664985760566,-0.73339844,0.171875,-0.0126953125,33.84375,-147.46875,-30.21875,0.0,0.0,0.0
1664985760591,-0.70703125,0.17285156,0.1953125,60.71875,-162.0,-31.09375,0.0,0.0,0.0
1664985760651,-0.5214844,0.018554688,0.2919922,66.875,-166.46875,-19.125,0.0,0.0,0.0
1664985760681,-0.50683594,0.14550781,0.3984375,39.09375,-108.90625,-18.375,-98.125,18.625,-78.5
1664985760711,-0.38378906,0.08886719,0.5214844,26.96875,-47.5,-13.8125,0.0,0.0,0.0
1664985760769,-0.34375,-0.052734375,0.8066406,21.53125,53.6875,-16.1875,0.0,0.0,0.0
1664985760802,-0.4501953,0.16992188,1.2558594,-15.21875,131.6875,7.96875,0.0,0.0,0.0
1664985760843,-1.3007812,0.29785156,0.107421875,-11.6875,124.0,14.09375,0.0,0.0,0.0
1664985760889,-0.7421875,0.21484375,0.34375,-56.15625,102.71875,-9.125,0.0,0.0,0.0
1664985760920,-0.8330078,0.01953125,-0.09082031,-79.90625,175.28125,22.3125,0.0,0.0,0.0
1664985760953,-1.5292969,-0.05078125,0.24707031,-47.75,111.875,21.90625,0.0,0.0,0.0
1664985761010,-0.7080078,0.12011719,0.21289062,-33.875,96.46875,15.3125,0.0,0.0,0.0
1664985761040,-0.93652344,0.08984375,0.16308594,-19.375,119.96875,42.59375,0.0,0.0,0.0
1664985761073,-1.1162109,0.13183594,0.055664062,-66.1875,124.125,46.0,0.0,0.0,0.0
1664985761137,-0.9667969,0.08984375,0.022460938,-26.75,75.96875,63.03125,0.0,0.0,0.0
1664985761161,-1.0136719,0.0126953125,0.103515625,12.125,57.28125,59.625,0.0,0.0,0.0
1664985761190,-0.95996094,-0.10253906,0.030273438,14.625,47.90625,35.3125,-115.9375,19.0625,-92.3125
1664985761250,-0.8613281,0.08984375,0.045898438,6.625,55.46875,-3.3125,0.0,0.0,0.0
1664985761282,-0.9482422,0.15527344,0.083984375,5.96875,37.53125,2.125,0.0,0.0,0.0
1664985761311,-0.90527344,0.22167969,0.1015625,-18.09375,33.84375,2.59375,0.0,0.0,0.0
1664985761370,-1.1787109,0.11621094,0.026367188,-9.78125,47.15625,8.46875,0.0,0.0,0.0
1664985761400,-1.3876953,0.21679688,0.15820312,-1.96875,49.0,4.8125,0.0,0.0,0.0
1664985761430,-1.4746094,0.033203125,0.24804688,7.8125,15.375,13.65625,0.0,0.0,0.0
1664985761490,-1.3164062,0.36328125,-0.01953125,-20.21875,-43.21875,-4.46875,0.0,0.0,0.0
1664985761520,-1.0976562,0.56347656,0.14550781,-7.875,-77.65625,0.34375,0.0,0.0,0.0
1664985761552,-1.1337891,0.234375,0.053710938,-37.375,-115.5,-8.0,0.0,0.0,0.0
1664985761609,-1.3203125,0.15332031,-0.17675781,-31.09375,-95.21875,-50.78125,0.0,0.0,0.0
1664985761639,-1.2822266,0.080078125,-0.11621094,26.46875,-120.1875,-65.6875,0.0,0.0,0.0
1664985761671,-1.1953125,0.14160156,0.22070312,69.8125,-183.90625,-87.1875,-111.0,17.5625,-88.125
1664985761731,-0.6484375,0.53125,0.45703125,59.96875,-187.34375,-71.90625,0.0,0.0,0.0
1664985761761,-0.76171875,0.25878906,0.19335938,0.34375,-143.625,-25.09375,0.0,0.0,0.0
1664985761788,-0.8076172,0.009765625,0.083984375,46.90625,-161.09375,-24.78125,0.0,0.0,0.0
1664985761881,-0.3486328,-0.06738281,0.3203125,51.5,-170.3125,-21.75,0.0,0.0,0.0
1664985761887,-0.56152344,0.16015625,0.39648438,47.46875,-129.09375,-13.5,0.0,0.0,0.0
1664985761910,-0.27539062,0.14453125,0.38964844,38.125,-87.59375,-13.0625,0.0,0.0,0.0
1664985761969,-0.15722656,0.028320312,0.70214844,26.09375,8.71875,-6.0625,0.0,0.0,0.0
1664985761998,-0.31445312,0.17285156,1.2080078,4.75,89.03125,-5.25,0.0,0.0,0.0
1664985762030,-1.2148438,0.14160156,-0.20996094,48.875,35.875,11.28125,0.0,0.0,0.0
1664985762121,-1.0771484,0.21191406,0.5595703,-38.65625,74.875,-9.59375,0.0,0.0,0.0
1664985762126,-0.8642578,0.24609375,0.3232422,-89.3125,150.5,-5.4375,0.0,0.0,0.0
1664985762150,-1.1572266,-0.001953125,0.40527344,-58.1875,108.5,26.34375,0.0,0.0,0.0
1664985762209,-0.92871094,-0.068359375,0.24511719,-61.59375,124.8125,15.0,-103.5,18.0625,-81.375
1664985762239,-1.0478516,0.07421875,0.28027344,-35.46875,118.46875,34.96875,0.0,0.0,0.0
1664985762268,-0.9580078,0.020507812,0.29492188,-18.625,105.625,21.40625,0.0,0.0,0.0
1664985762330,-0.77441406,0.14257812,0.24023438,-48.1875,115.78125,27.21875,0.0,0.0,0.0
1664985762360,-0.85253906,0.024414062,0.13378906,-59.03125,117.125,49.53125,0.0,0.0,0.0
1664985762392,-1.0078125,0.01953125,-0.07421875,-17.03125,88.375,56.75,0.0,0.0,0.0
