# Sensor type: Thingy
# Activity type: Standing
# Activity code: 100
# Subject id: s1918275
# Notes: 
timestamp,accel_x,accel_y,accel_z,gyro_x,gyro_y,gyro_z,mag_x,mag_y,mag_z
1664889542199,-1.0039062,0.15820312,-0.09082031,-0.09375,-0.4375,2.5,0.0,0.0,0.0
1664889542240,-0.9824219,0.13085938,-0.091796875,-3.3125,2.0625,0.78125,0.0,0.0,0.0
1664889542262,-1.0048828,0.1484375,-0.07421875,-2.40625,3.0,-0.25,0.0,0.0,0.0
1664889542308,-0.9824219,0.15039062,-0.0546875,1.3125,2.3125,-0.1875,-127.8125,17.3125,-129.375
1664889542355,-1.0185547,0.1796875,-0.10644531,-3.1875,0.3125,0.0625,0.0,0.0,0.0
1664889542399,-0.97753906,0.1796875,-0.115234375,-5.53125,-0.375,0.4375,0.0,0.0,0.0
1664889542465,-0.9902344,0.14550781,-0.08691406,-6.0625,1.15625,0.84375,0.0,0.0,0.0
1664889542468,-1.0117188,0.14355469,-0.09375,-2.15625,2.875,0.84375,0.0,0.0,0.0
1664889542510,-0.9941406,0.171875,-0.080078125,-1.0,3.34375,-0.0625,0.0,0.0,0.0
1664889542558,-0.9951172,0.17773438,-0.07519531,-0.5,1.28125,0.0625,0.0,0.0,0.0
1664889542628,-0.9921875,0.19335938,-0.08203125,-0.875,0.5,-0.0625,0.0,0.0,0.0
1664889542634,-0.9638672,0.22363281,-0.107421875,-3.3125,0.375,-0.5,0.0,0.0,0.0
1664889542691,-1.0527344,0.21582031,-0.09277344,-8.3125,6.28125,-3.0625,0.0,0.0,0.0
1664889542713,-0.9765625,0.15722656,-0.07421875,-6.75,3.3125,-0.71875,0.0,0.0,0.0
1664889542762,-0.99902344,0.17285156,-0.08203125,-4.65625,3.0625,-1.9375,0.0,0.0,0.0
1664889542806,-0.99316406,0.123046875,-0.078125,-3.9375,3.53125,-3.46875,-127.5,17.125,-130.5625
1664889542850,-1.0126953,0.13769531,-0.08886719,-3.125,3.96875,-3.125,0.0,0.0,0.0
1664889542871,-1.0263672,0.12207031,-0.09375,-1.84375,0.5625,-1.65625,0.0,0.0,0.0
1664889542919,-0.9794922,0.13085938,-0.12011719,-4.0625,-0.78125,0.1875,0.0,0.0,0.0
1664889542984,-0.9736328,0.083984375,-0.06640625,-0.15625,0.90625,-0.84375,0.0,0.0,0.0
1664889542989,-0.99902344,0.01171875,0.2421875,39.9375,7.6875,3.71875,0.0,0.0,0.0
1664889543035,-0.9716797,0.17089844,-0.53027344,-56.1875,21.1875,-14.34375,0.0,0.0,0.0
1664889543074,-0.9921875,0.24316406,-0.038085938,33.125,-5.75,8.71875,0.0,0.0,0.0
1664889543120,-0.9628906,0.20605469,-0.08105469,-5.9375,-2.5,2.375,0.0,0.0,0.0
1664889543185,-1.0068359,0.20117188,-0.1171875,-29.375,0.3125,1.59375,0.0,0.0,0.0
1664889543189,-0.99902344,0.078125,-0.14355469,6.4375,1.59375,-0.5625,0.0,0.0,0.0
1664889543238,-0.9814453,0.14648438,-0.057617188,2.46875,3.59375,-2.6875,0.0,0.0,0.0
1664889543276,-1.0048828,0.21679688,-0.078125,2.09375,0.96875,-0.3125,0.0,0.0,0.0
1664889543321,-1.0097656,0.14941406,-0.09863281,-9.0625,0.125,0.5625,-128.375,18.625,-129.375
1664889543348,-0.9814453,0.12207031,-0.119140625,5.65625,-1.875,-0.59375,0.0,0.0,0.0
1664889543387,-1.0039062,0.10839844,-0.14160156,8.875,6.09375,-2.25,0.0,0.0,0.0
1664889543434,-0.9921875,0.15722656,-0.14257812,2.46875,0.4375,-0.65625,0.0,0.0,0.0
1664889543510,-0.9863281,0.13378906,-0.13671875,8.03125,-1.40625,1.03125,0.0,0.0,0.0
1664889543517,-0.9873047,0.14453125,-0.13183594,2.96875,-2.5625,-0.25,0.0,0.0,0.0
1664889543546,-0.9980469,0.16308594,-0.12792969,1.625,-1.875,-0.375,0.0,0.0,0.0
1664889543590,-0.9892578,0.15722656,-0.12695312,1.4375,-0.3125,0.0,0.0,0.0,0.0
1664889543635,-0.9980469,0.1640625,-0.10839844,-1.0,0.4375,0.6875,0.0,0.0,0.0
1664889543680,-0.9980469,0.15429688,-0.1015625,-4.0625,0.0625,1.09375,0.0,0.0,0.0
1664889543703,-1.0058594,0.12597656,-0.08984375,-5.15625,-1.03125,-0.4375,0.0,0.0,0.0
1664889543750,-0.9892578,0.21777344,-0.095703125,-0.03125,-1.59375,-4.5,0.0,0.0,0.0
1664889543816,-0.9951172,0.15722656,-0.09082031,0.8125,-1.84375,0.25,-128.375,16.5625,-129.625
1664889543840,-1.0029297,0.1015625,-0.12207031,-0.75,-2.6875,2.1875,0.0,0.0,0.0
1664889543866,-0.9892578,0.13378906,-0.12792969,-0.40625,-1.46875,2.25,0.0,0.0,0.0
1664889543906,-1.0058594,0.13671875,-0.10449219,4.4375,0.375,-0.5625,0.0,0.0,0.0
1664889543951,-0.9980469,0.1953125,-0.08496094,1.5625,0.125,-1.84375,0.0,0.0,0.0
1664889544041,-0.99121094,0.15527344,-0.11035156,-3.875,-1.46875,0.4375,0.0,0.0,0.0
1664889544046,-0.9921875,0.14550781,-0.099609375,-5.53125,-1.09375,1.59375,0.0,0.0,0.0
1664889544066,-1.0078125,0.14257812,-0.083984375,1.1875,-0.78125,1.40625,0.0,0.0,0.0
1664889544131,-1.0,0.13867188,-0.08203125,1.375,0.71875,0.25,0.0,0.0,0.0
1664889544155,-1.0078125,0.1328125,-0.07128906,1.0,-0.5625,0.125,0.0,0.0,0.0
1664889544221,-1.0068359,0.15722656,-0.0859375,3.40625,-2.0,0.4375,0.0,0.0,0.0
1664889544225,-0.9941406,0.13574219,-0.10449219,4.84375,-0.78125,0.25,0.0,0.0,0.0
1664889544300,-1.0078125,0.15917969,-0.11816406,8.34375,2.0625,-0.65625,0.0,0.0,0.0
1664889544312,-0.99316406,0.17480469,-0.123046875,8.34375,1.78125,-0.25,-127.375,17.3125,-130.6875
1664889544360,-0.9707031,0.18457031,-0.12988281,7.78125,-0.78125,1.03125,0.0,0.0,0.0
1664889544403,-0.9814453,0.1953125,-0.111328125,2.65625,-2.125,0.5,0.0,0.0,0.0
1664889544427,-1.0136719,0.1796875,-0.13769531,-0.03125,-0.90625,-0.5625,0.0,0.0,0.0
1664889544470,-0.99902344,0.17089844,-0.12597656,-3.75,-0.65625,-0.71875,0.0,0.0,0.0
1664889544514,-1.0068359,0.15039062,-0.10839844,-6.9375,-0.96875,-0.3125,0.0,0.0,0.0
1664889544560,-0.9980469,0.13574219,-0.10644531,-8.3125,-1.40625,-0.65625,0.0,0.0,0.0
1664889544603,-0.9921875,0.14160156,-0.07910156,-5.65625,-2.1875,-0.5,0.0,0.0,0.0
1664889544625,-1.0087891,0.140625,-0.08984375,-1.6875,-2.5,0.0625,0.0,0.0,0.0
1664889544670,-0.9941406,0.12597656,-0.07421875,1.9375,-2.875,0.3125,0.0,0.0,0.0
1664889544716,-0.9902344,0.13867188,-0.10546875,3.21875,-2.1875,0.1875,0.0,0.0,0.0
1664889544738,-1.0009766,0.15722656,-0.08984375,2.15625,-1.875,-0.78125,0.0,0.0,0.0
1664889544784,-0.98828125,0.16210938,-0.09667969,0.875,-1.28125,-0.125,-127.1875,17.75,-129.1875
1664889544830,-0.9921875,0.16015625,-0.08496094,-2.28125,-0.4375,0.5,0.0,0.0,0.0
1664889544877,-0.99316406,0.14648438,-0.08496094,-1.96875,0.375,0.96875,0.0,0.0,0.0
1664889544920,-0.9902344,0.15039062,-0.091796875,-1.8125,0.4375,0.1875,0.0,0.0,0.0
1664889544944,-1.0,0.1484375,-0.08691406,-0.5,0.78125,0.1875,0.0,0.0,0.0
1664889544985,-0.99902344,0.15820312,-0.07519531,-0.9375,0.84375,-0.125,0.0,0.0,0.0
1664889545053,-1.0019531,0.15136719,-0.08886719,-0.21875,0.0625,-0.0625,0.0,0.0,0.0
1664889545097,-1.0107422,0.16503906,-0.07910156,0.8125,-0.1875,0.25,0.0,0.0,0.0
1664889545123,-0.984375,0.16015625,-0.078125,-2.28125,1.40625,0.25,0.0,0.0,0.0
1664889545143,-0.9970703,0.140625,-0.08691406,-2.21875,1.46875,0.5625,0.0,0.0,0.0
1664889545211,-0.9980469,0.13964844,-0.08886719,-0.5625,0.84375,0.71875,0.0,0.0,0.0
1664889545235,-1.0068359,0.15625,-0.0859375,0.53125,1.71875,0.90625,0.0,0.0,0.0
1664889545279,-1.0019531,0.140625,-0.099609375,-0.625,1.21875,0.0625,0.0,0.0,0.0
1664889545302,-0.9941406,0.15136719,-0.11035156,1.0625,0.375,0.375,-129.75,18.5,-129.9375
1664889545346,-0.9970703,0.15332031,-0.09863281,1.125,1.28125,0.84375,0.0,0.0,0.0
1664889545392,-0.9921875,0.1640625,-0.10546875,0.09375,1.53125,0.25,0.0,0.0,0.0
1664889545436,-0.9970703,0.15527344,-0.107421875,0.46875,1.21875,0.5625,0.0,0.0,0.0
1664889545460,-0.99609375,0.16113281,-0.09863281,0.65625,1.21875,0.71875,0.0,0.0,0.0
1664889545503,-0.9921875,0.15332031,-0.103515625,-0.40625,0.6875,0.84375,0.0,0.0,0.0
1664889545548,-0.9970703,0.15136719,-0.09863281,0.78125,0.6875,0.5625,0.0,0.0,0.0
1664889545596,-0.9970703,0.15332031,-0.10253906,1.1875,0.96875,0.5625,0.0,0.0,0.0
1664889545641,-0.9951172,0.16796875,-0.10546875,0.53125,0.96875,0.5625,0.0,0.0,0.0
1664889545660,-0.9980469,0.16796875,-0.11328125,-0.40625,0.90625,0.25,0.0,0.0,0.0
1664889545706,-0.99121094,0.16308594,-0.123046875,0.03125,1.15625,0.625,0.0,0.0,0.0
1664889545753,-1.0,0.15917969,-0.125,0.03125,1.09375,0.375,0.0,0.0,0.0
1664889545801,-0.9970703,0.16210938,-0.11035156,-0.40625,0.90625,0.25,-127.0625,17.0,-128.75
1664889545820,-0.9951172,0.16113281,-0.107421875,0.875,0.71875,0.4375,0.0,0.0,0.0
1664889545864,-0.99316406,0.15429688,-0.09863281,0.09375,0.0625,0.25,0.0,0.0,0.0
1664889545910,-0.9921875,0.15234375,-0.11035156,-1.5625,-0.4375,0.0,0.0,0.0,0.0
1664889545956,-0.9892578,0.15917969,-0.12597656,-0.28125,0.25,0.1875,0.0,0.0,0.0
1664889546071,-1.0,0.16894531,-0.11328125,0.71875,0.90625,0.90625,0.0,0.0,0.0
1664889546076,-0.9921875,0.15234375,-0.111328125,-1.0625,0.6875,0.4375,0.0,0.0,0.0
1664889546081,-0.9892578,0.17089844,-0.109375,-0.875,0.0625,-0.0625,0.0,0.0,0.0
1664889546110,-0.9980469,0.15625,-0.11328125,-1.125,0.375,-0.0625,0.0,0.0,0.0
1664889546155,-0.9941406,0.1640625,-0.09765625,-0.625,-0.1875,-0.0625,0.0,0.0,0.0
1664889546178,-0.99609375,0.15820312,-0.09472656,-0.40625,0.1875,-0.0625,0.0,0.0,0.0
1664889546224,-0.9863281,0.16210938,-0.11035156,0.875,0.25,0.1875,0.0,0.0,0.0
1664889546269,-0.9951172,0.16601562,-0.099609375,1.125,0.25,-0.0625,0.0,0.0,0.0
1664889546312,-0.9970703,0.16210938,-0.10546875,-0.03125,0.0,-0.0625,-127.1875,18.5,-129.9375
1664889546360,-0.99609375,0.1640625,-0.10449219,-0.15625,0.0,-0.0625,0.0,0.0,0.0
1664889546386,-0.9921875,0.15332031,-0.107421875,0.34375,0.125,0.3125,0.0,0.0,0.0
1664889546427,-0.99609375,0.14648438,-0.10253906,0.28125,0.375,-0.125,0.0,0.0,0.0
1664889546472,-0.9980469,0.16699219,-0.11230469,0.78125,0.25,-0.3125,0.0,0.0,0.0
1664889546515,-0.9921875,0.16894531,-0.103515625,0.46875,0.1875,-0.125,0.0,0.0,0.0
1664889546540,-0.99902344,0.15625,-0.10644531,-0.21875,0.375,0.1875,0.0,0.0,0.0
1664889546583,-0.9941406,0.15722656,-0.11816406,1.25,0.1875,0.0,0.0,0.0,0.0
1664889546629,-0.99316406,0.16210938,-0.10058594,1.625,0.125,-0.0625,0.0,0.0,0.0
1664889546676,-0.99121094,0.15917969,-0.11816406,0.46875,0.0,-0.3125,0.0,0.0,0.0
1664889546719,-0.9951172,0.15820312,-0.103515625,0.34375,0.125,-0.125,0.0,0.0,0.0
1664889546743,-1.0,0.16113281,-0.109375,0.46875,-0.0625,-0.25,0.0,0.0,0.0
1664889546786,-0.9951172,0.16113281,-0.125,0.65625,0.0625,-0.1875,-127.375,18.0625,-129.375
1664889546831,-0.9951172,0.16015625,-0.11230469,0.53125,0.1875,-0.0625,0.0,0.0,0.0
1664889546876,-0.9892578,0.16210938,-0.10058594,0.09375,0.125,0.0,0.0,0.0,0.0
1664889546899,-1.0,0.15625,-0.119140625,0.28125,0.0625,0.0,0.0,0.0,0.0
1664889546966,-1.0019531,0.16210938,-0.11621094,-0.40625,-0.125,-0.3125,0.0,0.0,0.0
1664889546988,-0.9951172,0.15917969,-0.11816406,0.15625,-0.0625,-0.3125,0.0,0.0,0.0
1664889547034,-0.99316406,0.16210938,-0.10839844,-0.34375,0.0625,-0.125,0.0,0.0,0.0
1664889547078,-0.98535156,0.15429688,-0.11816406,0.21875,0.25,-0.0625,0.0,0.0,0.0
1664889547103,-1.0019531,0.15917969,-0.12207031,0.78125,0.1875,-0.125,0.0,0.0,0.0
1664889547149,-1.0,0.15429688,-0.1171875,0.46875,0.25,-0.25,0.0,0.0,0.0
1664889547194,-1.0048828,0.15917969,-0.107421875,0.53125,-0.0625,-0.3125,0.0,0.0,0.0
1664889547238,-0.99609375,0.1640625,-0.11816406,0.875,-0.5,-0.125,0.0,0.0,0.0
1664889547261,-0.9941406,0.15820312,-0.11621094,0.65625,-0.25,0.0,0.0,0.0,0.0
1664889547305,-1.0,0.15234375,-0.109375,1.4375,-0.25,-0.25,-126.125,17.125,-130.25
1664889547348,-0.9921875,0.16015625,-0.12109375,1.5,-0.25,-0.3125,0.0,0.0,0.0
1664889547417,-0.9921875,0.15527344,-0.1015625,0.78125,-0.0625,-0.25,0.0,0.0,0.0
1664889547448,-0.99316406,0.16113281,-0.11035156,0.65625,-0.375,0.125,0.0,0.0,0.0
1664889547461,-0.9921875,0.15527344,-0.10449219,0.71875,-0.65625,-0.1875,0.0,0.0,0.0
1664889547506,-0.99902344,0.15820312,-0.119140625,0.71875,-0.1875,-0.25,0.0,0.0,0.0
1664889547553,-0.99121094,0.17089844,-0.115234375,0.03125,-0.0625,-0.1875,0.0,0.0,0.0
1664889547598,-0.99121094,0.15136719,-0.11035156,0.78125,-0.125,0.0625,0.0,0.0,0.0
1664889547619,-0.9970703,0.14746094,-0.10449219,0.53125,-0.125,-0.0625,0.0,0.0,0.0
1664889547663,-0.99121094,0.14941406,-0.111328125,0.65625,-0.125,0.0,0.0,0.0,0.0
1664889547707,-1.0078125,0.15917969,-0.10839844,0.34375,-0.1875,0.0,0.0,0.0,0.0
1664889547755,-0.9902344,0.16601562,-0.12402344,-0.6875,0.1875,0.0625,0.0,0.0,0.0
1664889547806,-1.0,0.15625,-0.11035156,-0.28125,0.25,0.0625,-126.625,17.0,-130.375
1664889547823,-1.0019531,0.15722656,-0.12011719,0.53125,-0.25,0.125,0.0,0.0,0.0
1664889547866,-1.0,0.15429688,-0.10449219,-0.03125,-0.3125,-0.125,0.0,0.0,0.0
1664889547911,-0.99316406,0.15917969,-0.10644531,0.34375,-0.125,-0.4375,0.0,0.0,0.0
1664889547956,-0.99902344,0.16210938,-0.115234375,1.0,-0.25,0.125,0.0,0.0,0.0
1664889547978,-0.9921875,0.15625,-0.11425781,0.71875,-0.5,0.1875,0.0,0.0,0.0
1664889548024,-0.9951172,0.17285156,-0.11621094,0.09375,-0.25,-0.125,0.0,0.0,0.0
1664889548090,-0.99902344,0.15722656,-0.11425781,0.28125,-0.1875,0.1875,0.0,0.0,0.0
1664889548115,-0.98828125,0.16308594,-0.1015625,0.03125,0.0625,0.3125,0.0,0.0,0.0
1664889548135,-0.9941406,0.15625,-0.1171875,0.03125,0.0625,0.125,0.0,0.0,0.0
1664889548181,-0.9941406,0.1640625,-0.11621094,-0.03125,-0.125,-0.0625,0.0,0.0,0.0
1664889548227,-1.0009766,0.16894531,-0.10839844,-0.5,-0.375,-0.25,0.0,0.0,0.0
1664889548273,-0.9892578,0.15820312,-0.111328125,-0.6875,-0.125,0.0625,0.0,0.0,0.0
1664889548315,-0.99121094,0.15917969,-0.1015625,-0.8125,0.1875,-0.0625,-127.8125,17.5625,-131.125
1664889548339,-1.0,0.15820312,-0.11328125,0.34375,0.1875,0.0,0.0,0.0,0.0
1664889548384,-1.0029297,0.15332031,-0.11230469,-0.09375,0.0,-0.0625,0.0,0.0,0.0
1664889548430,-0.9921875,0.15332031,-0.09667969,-0.8125,0.0,-0.0625,0.0,0.0,0.0
1664889548487,-0.9921875,0.15625,-0.109375,-0.21875,0.0,-0.0625,0.0,0.0,0.0
1664889548496,-0.9902344,0.15820312,-0.09863281,0.28125,0.125,0.0625,0.0,0.0,0.0
1664889548541,-0.9941406,0.15234375,-0.1015625,0.28125,0.1875,-0.125,0.0,0.0,0.0
1664889548586,-0.9941406,0.15429688,-0.10058594,-0.15625,0.0625,0.0,0.0,0.0,0.0
1664889548632,-0.99902344,0.15527344,-0.109375,0.40625,0.125,-0.0625,0.0,0.0,0.0
1664889548676,-0.9951172,0.15234375,-0.10058594,1.625,-0.1875,-0.1875,0.0,0.0,0.0
1664889548699,-0.9951172,0.15917969,-0.10644531,2.0625,-0.1875,-0.25,0.0,0.0,0.0
1664889548744,-0.9941406,0.17089844,-0.11328125,0.71875,-0.25,-0.3125,0.0,0.0,0.0
1664889548789,-0.9892578,0.16796875,-0.12597656,-0.5,-0.0625,-0.25,-127.1875,17.125,-130.5625
1664889548835,-0.98828125,0.16210938,-0.09667969,-1.0625,-0.125,-0.25,0.0,0.0,0.0
1664889548856,-0.99902344,0.15234375,-0.11328125,-1.0,0.0,-0.375,0.0,0.0,0.0
1664889548901,-0.99121094,0.15820312,-0.109375,-0.21875,-0.125,-0.1875,0.0,0.0,0.0
1664889548950,-0.99609375,0.15625,-0.10839844,-0.46875,0.0,-0.375,0.0,0.0,0.0
1664889548992,-0.99609375,0.1640625,-0.099609375,0.71875,-0.3125,-0.1875,0.0,0.0,0.0
1664889549085,-0.9951172,0.140625,-0.09863281,2.90625,-0.5625,0.125,0.0,0.0,0.0
1664889549088,-1.0039062,0.14746094,-0.11816406,2.09375,-0.4375,-0.5,0.0,0.0,0.0
1664889549107,-0.99316406,0.15820312,-0.1171875,1.8125,-0.78125,-0.59375,0.0,0.0,0.0
1664889549148,-1.0029297,0.16796875,-0.11816406,1.6875,-0.90625,-0.78125,0.0,0.0,0.0
1664889549240,-0.9892578,0.16894531,-0.12597656,-0.5,-0.5625,-0.78125,0.0,0.0,0.0
1664889549245,-0.9951172,0.16601562,-0.123046875,-0.875,-0.4375,-0.59375,0.0,0.0,0.0
1664889549260,-1.0,0.15917969,-0.109375,-0.75,-0.3125,-0.25,0.0,0.0,0.0
1664889549310,-1.0009766,0.1484375,-0.103515625,-0.75,-0.5,-0.1875,-125.875,18.1875,-130.875
1664889549353,-1.0009766,0.13964844,-0.099609375,-0.6875,-0.375,-0.4375,0.0,0.0,0.0
1664889549396,-0.99902344,0.13964844,-0.11035156,0.09375,-0.96875,-0.4375,0.0,0.0,0.0
1664889549420,-0.9941406,0.14746094,-0.11230469,-2.90625,-0.3125,-0.71875,0.0,0.0,0.0
1664889549463,-1.0019531,0.15625,-0.11328125,-2.09375,-0.5,-1.03125,0.0,0.0,0.0
1664889549509,-0.9980469,0.15429688,-0.10644531,2.40625,-0.96875,-0.25,0.0,0.0,0.0
1664889549556,-0.9941406,0.16113281,-0.10058594,2.0,-1.40625,-0.375,0.0,0.0,0.0
1664889549576,-0.9970703,0.16113281,-0.095703125,-0.75,-1.09375,0.1875,0.0,0.0,0.0
1664889549622,-0.99121094,0.14160156,-0.09472656,-1.96875,0.375,0.375,0.0,0.0,0.0
1664889549668,-0.99316406,0.13574219,-0.08886719,-0.625,0.6875,-0.0625,0.0,0.0,0.0
1664889549712,-1.0019531,0.14160156,-0.0859375,-0.09375,-0.0625,-0.5,0.0,0.0,0.0
1664889549757,-0.9951172,0.14160156,-0.109375,-0.15625,-0.5625,-0.375,0.0,0.0,0.0
1664889549780,-0.9902344,0.14257812,-0.09765625,1.625,-0.375,-0.0625,-129.0,18.1875,-128.875
1664889549824,-1.0,0.14648438,-0.10644531,2.59375,-0.5,0.0,0.0,0.0,0.0
1664889549868,-0.9902344,0.13378906,-0.12597656,1.625,0.71875,-0.1875,0.0,0.0,0.0
1664889549939,-0.98828125,0.13378906,-0.11230469,1.75,2.125,-0.3125,0.0,0.0,0.0
1664889549944,-1.0107422,0.15917969,-0.09863281,3.21875,1.65625,0.0,0.0,0.0,0.0
1664889549990,-1.0136719,0.15722656,-0.09667969,1.3125,0.3125,0.3125,0.0,0.0,0.0
1664889550026,-1.0048828,0.16113281,-0.107421875,-0.8125,-0.84375,-0.0625,0.0,0.0,0.0
1664889550070,-0.9951172,0.16308594,-0.115234375,-1.3125,-0.90625,-0.4375,0.0,0.0,0.0
1664889550118,-0.98828125,0.15820312,-0.1015625,-0.8125,0.0,-0.4375,0.0,0.0,0.0
1664889550138,-0.9941406,0.15136719,-0.123046875,-1.75,0.5625,0.0,0.0,0.0,0.0
1664889550184,-0.99902344,0.14941406,-0.12109375,-1.75,0.25,0.375,0.0,0.0,0.0
1664889550274,-0.99609375,0.15136719,-0.119140625,-1.5,0.4375,0.1875,0.0,0.0,0.0
1664889550279,-1.0039062,0.15136719,-0.10644531,-0.9375,0.3125,0.25,0.0,0.0,0.0
1664889550299,-1.0029297,0.16308594,-0.09375,-0.15625,-0.125,0.1875,-127.1875,17.4375,-128.875
1664889550340,-0.99316406,0.14257812,-0.103515625,0.15625,-0.4375,0.625,0.0,0.0,0.0
1664889550389,-0.99121094,0.14257812,-0.09765625,0.09375,0.5625,0.25,0.0,0.0,0.0
1664889550443,-1.0,0.14550781,-0.099609375,0.71875,0.5625,-0.125,0.0,0.0,0.0
1664889550477,-0.9970703,0.14550781,-0.09863281,0.21875,-0.125,0.125,0.0,0.0,0.0
1664889550498,-1.0039062,0.16113281,-0.103515625,-0.09375,0.0625,0.25,0.0,0.0,0.0
1664889550543,-0.99316406,0.15136719,-0.11425781,-0.21875,-0.0625,0.4375,0.0,0.0,0.0
1664889550589,-0.9921875,0.15234375,-0.095703125,-0.46875,-0.5625,0.5,0.0,0.0,0.0
1664889550632,-0.99609375,0.14257812,-0.11816406,-0.9375,-0.25,-0.375,0.0,0.0,0.0
1664889550656,-0.9980469,0.15722656,-0.1015625,0.15625,-0.59375,-0.375,0.0,0.0,0.0
1664889550701,-0.9921875,0.15527344,-0.10449219,-0.03125,-0.4375,0.5625,0.0,0.0,0.0
1664889550773,-0.9921875,0.15332031,-0.12011719,-1.25,-0.1875,0.3125,0.0,0.0,0.0
1664889550793,-0.9980469,0.15039062,-0.107421875,-0.6875,0.0625,0.1875,-127.0625,18.3125,-131.125
1664889550813,-0.9980469,0.16113281,-0.10253906,-2.03125,-0.1875,-0.25,0.0,0.0,0.0
1664889550859,-0.99121094,0.14355469,-0.099609375,-2.84375,-0.125,0.3125,0.0,0.0,0.0
1664889550906,-1.0,0.14746094,-0.095703125,-1.375,-0.0625,0.84375,0.0,0.0,0.0
1664889550950,-1.0,0.14355469,-0.1015625,0.59375,0.5,0.78125,0.0,0.0,0.0
1664889550998,-1.0029297,0.16015625,-0.087890625,0.03125,0.6875,0.4375,0.0,0.0,0.0
1664889551022,-0.9951172,0.14257812,-0.08984375,-0.6875,-0.375,0.5,0.0,0.0,0.0
1664889551061,-0.9873047,0.14648438,-0.10058594,-0.875,-0.0625,0.125,0.0,0.0,0.0
1664889551105,-0.9941406,0.14453125,-0.10839844,0.53125,0.6875,0.25,0.0,0.0,0.0
1664889551151,-0.99121094,0.13183594,-0.1015625,1.75,0.0,0.4375,0.0,0.0,0.0
1664889551174,-1.0,0.15234375,-0.11816406,3.09375,-0.3125,0.3125,0.0,0.0,0.0
1664889551218,-1.0,0.16308594,-0.12207031,1.8125,-0.59375,0.0625,0.0,0.0,0.0
1664889551263,-0.98339844,0.16113281,-0.099609375,0.65625,-0.125,0.3125,0.0,0.0,0.0
1664889551308,-0.9921875,0.16113281,-0.10058594,-0.21875,0.4375,0.25,-128.375,17.5625,-129.375
1664889551359,-0.99902344,0.17675781,-0.09863281,-0.46875,0.375,-0.1875,0.0,0.0,0.0
1664889551375,-0.9951172,0.16015625,-0.09667969,-0.625,-0.125,0.1875,0.0,0.0,0.0
1664889551420,-1.0039062,0.15234375,-0.09472656,-1.125,0.0,0.0625,0.0,0.0,0.0
1664889551469,-0.9951172,0.15429688,-0.09082031,0.34375,0.0,0.0625,0.0,0.0,0.0
1664889551534,-0.99902344,0.15820312,-0.09765625,0.8125,-0.125,-0.125,0.0,0.0,0.0
1664889551540,-0.99609375,0.16015625,-0.10449219,-0.40625,0.1875,-0.125,0.0,0.0,0.0
1664889551577,-0.9902344,0.15527344,-0.10839844,-0.625,0.375,0.125,0.0,0.0,0.0
1664889551623,-0.9921875,0.14257812,-0.10644531,-0.03125,0.0,-0.0625,0.0,0.0,0.0
1664889551672,-0.9951172,0.14355469,-0.11816406,0.71875,0.125,-0.3125,0.0,0.0,0.0
1664889551715,-0.9970703,0.15039062,-0.107421875,1.625,0.25,-0.125,0.0,0.0,0.0
1664889551735,-0.9951172,0.15820312,-0.10449219,1.375,0.4375,0.4375,0.0,0.0,0.0
1664889551783,-0.9902344,0.15820312,-0.103515625,-0.03125,0.4375,-0.1875,0.0,0.0,0.0
1664889551826,-1.0029297,0.15234375,-0.107421875,0.71875,0.3125,0.125,-127.9375,16.6875,-129.9375
1664889551879,-1.0,0.16015625,-0.10253906,0.78125,0.0625,0.125,0.0,0.0,0.0
1664889551893,-0.99902344,0.14550781,-0.11035156,0.03125,0.0625,-0.1875,0.0,0.0,0.0
1664889551960,-0.9980469,0.15527344,-0.11621094,0.53125,0.3125,-0.3125,0.0,0.0,0.0
1664889551984,-0.9785156,0.14648438,-0.123046875,0.53125,0.25,-0.25,0.0,0.0,0.0
1664889552029,-1.0029297,0.15039062,-0.12011719,1.0625,0.0,0.0,0.0,0.0,0.0
1664889552079,-0.99902344,0.15039062,-0.1328125,-0.875,-0.25,-0.3125,0.0,0.0,0.0
1664889552096,-0.9941406,0.14257812,-0.107421875,-0.28125,-0.375,-0.25,0.0,0.0,0.0
1664889552142,-1.0009766,0.13964844,-0.12011719,1.8125,-0.59375,-0.71875,0.0,0.0,0.0
1664889552190,-0.9921875,0.15625,-0.115234375,2.78125,-1.15625,-0.78125,0.0,0.0,0.0
1664889552230,-0.9873047,0.16699219,-0.11816406,1.4375,-0.96875,-0.3125,0.0,0.0,0.0
1664889552276,-0.9980469,0.16601562,-0.123046875,-0.15625,-0.5,0.3125,0.0,0.0,0.0
1664889552299,-0.9951172,0.15917969,-0.10058594,-0.21875,-0.59375,0.3125,-127.5,18.1875,-129.5
1664889552344,-0.99902344,0.15039062,-0.099609375,-1.0625,-0.65625,-0.0625,0.0,0.0,0.0
1664889552392,-0.99609375,0.14453125,-0.08886719,-0.28125,-0.5625,0.0,0.0,0.0,0.0
1664889552432,-1.0019531,0.16015625,-0.08984375,-1.375,-1.15625,-0.0625,0.0,0.0,0.0
1664889552456,-0.99121094,0.15136719,-0.107421875,-2.34375,-0.59375,-0.0625,0.0,0.0,0.0
1664889552501,-0.99609375,0.14550781,-0.107421875,-1.5625,-0.375,-0.0625,0.0,0.0,0.0
1664889552548,-0.9970703,0.15039062,-0.095703125,1.0625,-0.4375,0.0625,0.0,0.0,0.0
1664889552592,-1.0,0.15820312,-0.08691406,-0.03125,-0.375,-0.375,0.0,0.0,0.0
1664889552619,-0.9921875,0.15332031,-0.10253906,-0.40625,-0.59375,-0.3125,0.0,0.0,0.0
1664889552660,-0.99121094,0.14453125,-0.099609375,-0.03125,-0.25,-0.5,0.0,0.0,0.0
1664889552705,-1.0019531,0.15917969,-0.10644531,0.71875,-0.125,-0.3125,0.0,0.0,0.0
1664889552750,-0.9892578,0.15527344,-0.10449219,0.59375,-0.59375,-0.0625,0.0,0.0,0.0
1664889552793,-0.9902344,0.15429688,-0.11035156,-0.40625,-0.59375,0.0,0.0,0.0,0.0
1664889552817,-0.9980469,0.15917969,-0.10546875,-0.28125,-0.0625,-0.3125,-127.9375,17.75,-129.9375
1664889552863,-0.99902344,0.15332031,-0.09667969,-0.03125,-0.1875,-0.1875,0.0,0.0,0.0
1664889552906,-0.9980469,0.15625,-0.087890625,-0.5625,-0.5625,-0.25,0.0,0.0,0.0
1664889552950,-0.9921875,0.15234375,-0.095703125,-0.625,-0.65625,-0.5,0.0,0.0,0.0
1664889552976,-0.9863281,0.13769531,-0.103515625,-0.03125,-0.84375,-0.5625,0.0,0.0,0.0
1664889553022,-0.98828125,0.15136719,-0.10449219,-0.03125,-0.0625,-0.90625,0.0,0.0,0.0
1664889553065,-0.984375,0.14648438,-0.11035156,0.09375,0.4375,-0.5625,0.0,0.0,0.0
1664889553108,-0.99121094,0.15527344,-0.08886719,0.03125,0.1875,0.0,0.0,0.0,0.0
1664889553153,-0.99609375,0.140625,-0.09472656,-1.4375,-0.3125,0.125,0.0,0.0,0.0
1664889553176,-0.99902344,0.14550781,-0.08886719,-1.1875,-0.3125,-0.0625,0.0,0.0,0.0
1664889553220,-0.9921875,0.15136719,-0.08984375,-0.21875,-0.1875,0.125,0.0,0.0,0.0
1664889553266,-0.99902344,0.15332031,-0.087890625,0.21875,0.0,0.0625,0.0,0.0,0.0
1664889553326,-0.99902344,0.15625,-0.10546875,-0.5625,-0.0625,0.5,-127.0625,18.3125,-129.0625
1664889553333,-0.99902344,0.13183594,-0.091796875,-0.21875,0.0,0.25,0.0,0.0,0.0
1664889553380,-0.99609375,0.14746094,-0.09765625,-0.28125,0.0,0.0625,0.0,0.0,0.0
1664889553424,-1.0029297,0.14648438,-0.09765625,0.34375,0.0625,0.0,0.0,0.0,0.0
1664889553468,-0.99902344,0.16113281,-0.107421875,-0.03125,-0.5,-0.125,0.0,0.0,0.0
1664889553516,-0.9863281,0.14453125,-0.09472656,-0.03125,-0.71875,0.3125,0.0,0.0,0.0
1664889553535,-0.99121094,0.140625,-0.10253906,0.09375,-0.1875,-0.1875,0.0,0.0,0.0
1664889553580,-1.0068359,0.15136719,-0.10058594,1.3125,0.125,0.0,0.0,0.0,0.0
1664889553628,-0.9892578,0.14648438,-0.10253906,1.1875,-1.09375,0.125,0.0,0.0,0.0
1664889553671,-0.98339844,0.14648438,-0.091796875,-1.3125,-1.03125,-0.1875,0.0,0.0,0.0
1664889553693,-0.984375,0.14550781,-0.10644531,-0.15625,-0.25,0.125,0.0,0.0,0.0
1664889553739,-1.0009766,0.14257812,-0.099609375,2.0625,-0.59375,0.25,0.0,0.0,0.0
1664889553783,-1.0029297,0.140625,-0.10058594,1.5625,-0.71875,-0.375,0.0,0.0,0.0
1664889553829,-0.9980469,0.15820312,-0.109375,0.28125,-0.71875,-0.3125,-127.375,16.25,-130.125
1664889553850,-0.9873047,0.15917969,-0.087890625,0.40625,-0.71875,0.4375,0.0,0.0,0.0
1664889553895,-0.99316406,0.14160156,-0.095703125,-1.1875,0.0,0.1875,0.0,0.0,0.0
1664889553941,-0.9970703,0.15234375,-0.09082031,-0.21875,-0.1875,-0.3125,0.0,0.0,0.0
1664889553987,-0.9921875,0.15527344,-0.0859375,0.71875,-0.5,-0.25,0.0,0.0,0.0
1664889554031,-0.9892578,0.14941406,-0.09375,-1.6875,0.0,0.3125,0.0,0.0,0.0
1664889554053,-1.0039062,0.15429688,-0.107421875,-1.625,0.71875,-0.0625,0.0,0.0,0.0
1664889554101,-0.99609375,0.15039062,-0.08300781,-0.15625,0.1875,-0.0625,0.0,0.0,0.0
1664889554143,-0.9980469,0.15039062,-0.107421875,0.03125,0.1875,-0.1875,0.0,0.0,0.0
1664889554188,-1.0,0.14941406,-0.083984375,-1.5,-0.0625,-0.375,0.0,0.0,0.0
1664889554212,-0.9902344,0.14746094,-0.09472656,-0.15625,-0.125,0.125,0.0,0.0,0.0
1664889554255,-0.99316406,0.1484375,-0.1015625,0.03125,0.1875,-0.0625,0.0,0.0,0.0
1664889554301,-0.98828125,0.1484375,-0.10253906,0.46875,0.5,-0.25,-128.6875,16.375,-129.1875
1664889554347,-1.0087891,0.15136719,-0.09375,0.53125,0.3125,-0.25,0.0,0.0,0.0
1664889554396,-0.9980469,0.14746094,-0.09375,-0.9375,0.0625,0.1875,0.0,0.0,0.0
1664889554415,-0.9951172,0.13867188,-0.10058594,0.03125,0.1875,-0.0625,0.0,0.0,0.0
1664889554458,-0.99609375,0.14941406,-0.09863281,1.4375,0.1875,-0.0625,0.0,0.0,0.0
1664889554504,-1.0039062,0.1484375,-0.10839844,1.4375,-0.25,-0.125,0.0,0.0,0.0
1664889554552,-0.9892578,0.15332031,-0.10546875,0.03125,-0.4375,-0.5,0.0,0.0,0.0
1664889554570,-0.9902344,0.1484375,-0.10253906,-0.03125,0.0,-0.125,0.0,0.0,0.0
1664889554616,-0.99316406,0.14746094,-0.09863281,0.09375,0.5625,0.0625,0.0,0.0,0.0
1664889554662,-0.9980469,0.14648438,-0.10058594,1.4375,0.125,0.0,0.0,0.0,0.0
1664889554708,-0.99316406,0.16113281,-0.09667969,0.0625,0.03125,-0.3125,0.0,0.0,0.0
1664889554754,-1.0009766,0.15722656,-0.09667969,-1.03125,-0.03125,-0.125,0.0,0.0,0.0
1664889554775,-0.984375,0.14746094,-0.10839844,-0.5,-0.03125,0.125,0.0,0.0,0.0
1664889554817,-0.9951172,0.14941406,-0.10546875,-0.125,0.8125,0.125,-128.125,15.5,-128.75
1664889554862,-0.9980469,0.1484375,-0.099609375,0.25,0.5,0.28125,0.0,0.0,0.0
1664889554909,-1.0019531,0.1484375,-0.09375,-0.78125,-0.21875,-0.125,0.0,0.0,0.0
1664889554931,-0.9980469,0.14648438,-0.08105469,-2.25,-0.15625,-0.125,0.0,0.0,0.0
1664889554977,-0.9970703,0.14355469,-0.09082031,-0.53125,0.3125,-0.1875,0.0,0.0,0.0
1664889555043,-0.99609375,0.14453125,-0.10253906,0.1875,0.3125,-0.125,0.0,0.0,0.0
1664889555070,-0.9941406,0.13574219,-0.10253906,-0.1875,0.03125,-0.25,0.0,0.0,0.0
1664889555111,-0.9970703,0.15039062,-0.09082031,-0.5,-0.15625,-0.1875,0.0,0.0,0.0
1664889555136,-0.99316406,0.14257812,-0.09667969,-1.34375,0.125,0.34375,0.0,0.0,0.0
1664889555178,-0.99121094,0.14648438,-0.091796875,-0.59375,0.3125,0.0625,0.0,0.0,0.0
1664889555246,-0.9921875,0.1484375,-0.10253906,0.125,0.25,-0.0625,0.0,0.0,0.0
1664889555270,-0.9980469,0.15234375,-0.095703125,-0.125,-0.46875,-0.3125,0.0,0.0,0.0
1664889555336,-0.99609375,0.14453125,-0.10253906,-0.5,-0.03125,-0.0625,-126.125,17.125,-128.125
1664889555341,-1.0009766,0.14160156,-0.09863281,0.4375,0.5,0.0625,0.0,0.0,0.0
1664889555385,-1.0029297,0.15722656,-0.09765625,1.53125,0.5625,-0.0625,0.0,0.0,0.0
1664889555435,-1.0,0.14941406,-0.09082031,1.15625,0.03125,0.0625,0.0,0.0,0.0
1664889555470,-1.0068359,0.14550781,-0.103515625,-0.59375,0.0625,0.0625,0.0,0.0,0.0
1664889555493,-0.9921875,0.15527344,-0.10449219,-0.96875,0.4375,0.125,0.0,0.0,0.0
1664889555539,-0.9902344,0.140625,-0.09667969,0.5625,0.5,0.0625,0.0,0.0,0.0
1664889555607,-0.99902344,0.14648438,-0.08496094,0.25,0.5,-0.125,0.0,0.0,0.0
1664889555630,-1.0009766,0.15039062,-0.09765625,-0.0625,0.5625,0.0,0.0,0.0,0.0
1664889555651,-0.9970703,0.14257812,-0.10644531,-0.1875,0.03125,0.0625,0.0,0.0,0.0
1664889555697,-0.9902344,0.14550781,-0.09863281,-0.1875,0.0625,0.125,0.0,0.0,0.0
1664889555743,-0.9941406,0.14550781,-0.08300781,0.75,0.6875,-0.0625,0.0,0.0,0.0
1664889555785,-0.9980469,0.14355469,-0.08691406,1.34375,0.1875,0.15625,0.0,0.0,0.0
1664889555831,-1.0,0.14257812,-0.09863281,-0.3125,-0.40625,-0.25,-128.25,17.125,-128.875
1664889555856,-0.9980469,0.13671875,-0.09375,0.0625,0.0625,0.0,0.0,0.0,0.0
1664889555899,-1.0,0.14746094,-0.09667969,0.5625,0.0625,-0.0625,0.0,0.0,0.0
1664889555946,-0.99902344,0.140625,-0.091796875,0.6875,0.5625,0.125,0.0,0.0,0.0
1664889555988,-1.0039062,0.15234375,-0.091796875,0.625,-0.09375,-0.0625,0.0,0.0,0.0
1664889556012,-0.9941406,0.14746094,-0.10253906,0.375,-0.46875,0.0625,0.0,0.0,0.0
1664889556078,-1.0,0.1484375,-0.09667969,-0.1875,-0.03125,0.125,0.0,0.0,0.0
1664889556103,-0.9921875,0.14160156,-0.107421875,0.75,0.3125,0.125,0.0,0.0,0.0
1664889556145,-0.9970703,0.15136719,-0.091796875,1.03125,0.3125,-0.0625,0.0,0.0,0.0
1664889556191,-1.0,0.1484375,-0.095703125,-0.375,-0.21875,-0.125,0.0,0.0,0.0
1664889556214,-0.99121094,0.1484375,-0.09375,-0.90625,-0.34375,0.0,0.0,0.0,0.0
1664889556260,-0.9951172,0.14550781,-0.10546875,-0.125,0.1875,0.15625,0.0,0.0,0.0
1664889556304,-1.0029297,0.14648438,-0.09472656,0.25,0.0625,-0.1875,-127.0625,17.5625,-130.6875
1664889556350,-0.9951172,0.15527344,-0.099609375,-0.4375,-0.21875,-0.25,0.0,0.0,0.0
1664889556370,-1.0029297,0.1484375,-0.109375,-0.0625,-0.15625,-0.0625,0.0,0.0,0.0
1664889556415,-0.99609375,0.14746094,-0.09375,0.0,-0.21875,-0.1875,0.0,0.0,0.0
1664889556461,-0.9873047,0.15039062,-0.09667969,0.5,-0.28125,-0.1875,0.0,0.0,0.0
1664889556506,-0.99902344,0.15039062,-0.09765625,0.375,-0.03125,0.15625,0.0,0.0,0.0
1664889556573,-0.9873047,0.140625,-0.107421875,-0.5,-0.28125,0.0,0.0,0.0,0.0
1664889556579,-1.0048828,0.14355469,-0.09863281,-0.65625,-0.34375,-0.1875,0.0,0.0,0.0
1664889556619,-0.99316406,0.1484375,-0.09375,-1.03125,-0.21875,0.0625,0.0,0.0,0.0
1664889556666,-0.99609375,0.13964844,-0.10058594,-0.3125,0.03125,0.21875,0.0,0.0,0.0
1664889556710,-0.9970703,0.15722656,-0.10449219,-0.4375,-0.15625,-0.3125,0.0,0.0,0.0
1664889556730,-1.0019531,0.1484375,-0.09277344,-0.1875,-0.59375,-0.375,0.0,0.0,0.0
1664889556776,-0.99121094,0.14648438,-0.09082031,-1.40625,-0.15625,-0.125,0.0,0.0,0.0
1664889556820,-0.9902344,0.15136719,-0.10253906,-0.78125,0.4375,0.34375,-128.125,16.25,-130.125
1664889556866,-1.0009766,0.140625,-0.08886719,0.25,0.03125,0.21875,0.0,0.0,0.0
1664889556891,-1.0019531,0.14257812,-0.09082031,-0.1875,-0.59375,0.0,0.0,0.0,0.0
1664889556933,-1.0009766,0.13476562,-0.09082031,-0.1875,-0.65625,0.0625,0.0,0.0,0.0
1664889556979,-0.9921875,0.14550781,-0.10546875,-0.375,-0.28125,0.0625,0.0,0.0,0.0
1664889557026,-0.99121094,0.140625,-0.09667969,0.125,-0.15625,0.125,0.0,0.0,0.0
1664889557068,-1.0039062,0.15039062,-0.08496094,-0.25,-0.15625,0.15625,0.0,0.0,0.0
1664889557092,-0.99902344,0.140625,-0.09082031,-0.71875,-0.53125,-0.0625,0.0,0.0,0.0
1664889557135,-1.0068359,0.1484375,-0.09863281,-0.78125,-0.34375,0.0,0.0,0.0,0.0
1664889557180,-0.9921875,0.14257812,-0.08691406,-1.15625,-0.15625,0.28125,0.0,0.0,0.0
1664889557227,-0.99121094,0.14257812,-0.08496094,-0.3125,0.4375,0.40625,0.0,0.0,0.0
1664889557270,-1.0078125,0.14257812,-0.09863281,-0.125,0.4375,0.0,0.0,0.0,0.0
1664889557293,-1.0048828,0.14746094,-0.0859375,-0.4375,-0.03125,0.0,-128.6875,17.75,-128.875
1664889557339,-0.99121094,0.14550781,-0.095703125,-0.90625,-0.34375,0.21875,0.0,0.0,0.0
1664889557384,-0.98828125,0.1484375,-0.09082031,-0.1875,0.125,0.0625,0.0,0.0,0.0
1664889557449,-0.9980469,0.15136719,-0.07714844,0.8125,0.625,0.34375,0.0,0.0,0.0
1664889557453,-1.0019531,0.1484375,-0.09472656,1.03125,0.25,0.0625,0.0,0.0,0.0
1664889557496,-0.9921875,0.14453125,-0.08984375,0.4375,-0.09375,0.125,0.0,0.0,0.0
1664889557543,-0.9921875,0.15039062,-0.09082031,-0.125,0.03125,0.125,0.0,0.0,0.0
1664889557585,-0.9921875,0.15039062,-0.095703125,0.3125,0.1875,0.15625,0.0,0.0,0.0
1664889557608,-0.9892578,0.15039062,-0.087890625,0.75,0.5,0.0625,0.0,0.0,0.0
1664889557652,-0.9941406,0.15429688,-0.0859375,0.1875,0.25,0.15625,0.0,0.0,0.0
1664889557697,-1.0,0.14746094,-0.09375,-0.96875,0.03125,0.0,0.0,0.0,0.0
1664889557746,-0.9951172,0.14453125,-0.0859375,-1.21875,0.375,0.125,0.0,0.0,0.0
1664889557822,-0.9980469,0.14746094,-0.08691406,-0.65625,0.75,0.0625,0.0,0.0,0.0
1664889557829,-1.0,0.13574219,-0.07910156,0.25,0.4375,0.0,-128.25,17.125,-127.875
1664889557858,-1.0048828,0.14160156,-0.09472656,0.375,0.03125,-0.125,0.0,0.0,0.0
1664889557899,-0.9941406,0.15039062,-0.087890625,0.125,0.03125,0.125,0.0,0.0,0.0
1664889557948,-0.99121094,0.15039062,-0.09375,0.0625,0.375,0.0625,0.0,0.0,0.0
1664889557967,-0.9970703,0.14550781,-0.0859375,0.0,0.5,0.0625,0.0,0.0,0.0
1664889558012,-1.0029297,0.14648438,-0.08496094,-0.3125,0.0625,-0.1875,0.0,0.0,0.0
1664889558060,-0.9951172,0.15136719,-0.09277344,-0.4375,0.3125,-0.0625,0.0,0.0,0.0
1664889558105,-0.9941406,0.14453125,-0.09277344,0.125,0.4375,0.125,0.0,0.0,0.0
1664889558171,-0.99316406,0.14941406,-0.09765625,-0.0625,0.25,-0.0625,0.0,0.0,0.0
1664889558180,-1.0,0.14453125,-0.087890625,0.75,0.5,0.0,0.0,0.0,0.0
1664889558227,-1.0078125,0.15527344,-0.09765625,-0.125,0.25,-0.1875,0.0,0.0,0.0
1664889558266,-1.0019531,0.15234375,-0.099609375,-0.1875,0.0625,0.15625,0.0,0.0,0.0
1664889558310,-0.9921875,0.15234375,-0.095703125,-0.25,0.1875,0.0,-127.375,18.0625,-129.375
1664889558349,-0.9902344,0.14355469,-0.09863281,-0.59375,0.5,0.0625,0.0,0.0,0.0
1664889558372,-1.0029297,0.14257812,-0.09375,-0.5,0.03125,0.0625,0.0,0.0,0.0
1664889558420,-0.9970703,0.1484375,-0.09863281,-0.90625,-0.03125,-0.0625,0.0,0.0,0.0
1664889558464,-1.0019531,0.14746094,-0.09765625,-1.21875,0.03125,0.0,0.0,0.0,0.0
1664889558516,-0.9941406,0.13867188,-0.076171875,-0.59375,0.25,0.0625,0.0,0.0,0.0
1664889558531,-0.99902344,0.14257812,-0.09375,0.0625,0.375,0.0625,0.0,0.0,0.0
1664889558581,-0.9951172,0.14453125,-0.08300781,-0.125,0.0625,-0.0625,0.0,0.0,0.0
1664889558644,-0.9951172,0.14941406,-0.095703125,-0.59375,-0.03125,-0.0625,0.0,0.0,0.0
1664889558668,-0.9941406,0.14453125,-0.091796875,-0.0625,0.03125,-0.0625,0.0,0.0,0.0
1664889558711,-0.9941406,0.15136719,-0.091796875,0.25,0.3125,0.125,0.0,0.0,0.0
1664889558739,-1.0029297,0.1484375,-0.09863281,0.625,0.4375,0.0625,0.0,0.0,0.0
1664889558777,-1.0019531,0.15039062,-0.10449219,0.375,-0.03125,-0.0625,0.0,0.0,0.0
1664889558823,-0.9970703,0.15039062,-0.09082031,-0.25,0.0625,-0.0625,-127.9375,18.1875,-130.25
1664889558869,-0.984375,0.15234375,-0.099609375,-0.59375,0.25,0.125,0.0,0.0,0.0
1664889558891,-0.99902344,0.14355469,-0.09277344,0.4375,0.5,0.28125,0.0,0.0,0.0
1664889558936,-1.0039062,0.15136719,-0.09375,0.0,0.3125,0.15625,0.0,0.0,0.0
1664889558985,-0.99316406,0.15234375,-0.087890625,-0.96875,0.1875,0.0625,0.0,0.0,0.0
1664889559025,-1.0,0.15429688,-0.1015625,-0.71875,-0.03125,0.0625,0.0,0.0,0.0
1664889559057,-0.98535156,0.15429688,-0.08886719,-0.4375,0.0625,0.28125,0.0,0.0,0.0
1664889559116,-1.0078125,0.14941406,-0.09277344,-0.375,0.125,0.15625,0.0,0.0,0.0
1664889559139,-0.9980469,0.15136719,-0.08886719,-0.125,0.25,0.34375,0.0,0.0,0.0
1664889559185,-1.0039062,0.13964844,-0.107421875,-0.375,-0.15625,0.15625,0.0,0.0,0.0
1664889559227,-0.9970703,0.14746094,-0.10449219,-0.59375,0.125,0.0,0.0,0.0,0.0
1664889559251,-0.9863281,0.13867188,-0.08691406,0.125,0.125,0.40625,0.0,0.0,0.0
1664889559319,-1.0009766,0.14453125,-0.09863281,-0.125,0.375,0.40625,-127.1875,17.75,-129.5
1664889559342,-0.99609375,0.14160156,-0.087890625,0.0625,0.25,0.21875,0.0,0.0,0.0
1664889559385,-0.9902344,0.14453125,-0.099609375,-0.25,-0.03125,0.28125,0.0,0.0,0.0
1664889559412,-0.99121094,0.140625,-0.0859375,-0.5,-0.09375,0.125,0.0,0.0,0.0
1664889559453,-0.9941406,0.15234375,-0.087890625,0.375,0.5,0.28125,0.0,0.0,0.0
1664889559500,-0.9951172,0.14453125,-0.09082031,1.15625,0.5,0.34375,0.0,0.0,0.0
1664889559543,-0.98535156,0.15429688,-0.09863281,1.09375,0.25,0.28125,0.0,0.0,0.0
1664889559589,-0.98535156,0.15429688,-0.09277344,0.25,0.0625,0.0,0.0,0.0,0.0
1664889559616,-0.99902344,0.15722656,-0.099609375,-0.4375,0.0625,0.0625,0.0,0.0,0.0
1664889559656,-0.98828125,0.15527344,-0.10058594,0.125,-0.03125,0.28125,0.0,0.0,0.0
1664889559702,-1.0078125,0.140625,-0.095703125,0.3125,0.25,0.15625,0.0,0.0,0.0
1664889559745,-0.9902344,0.14941406,-0.10546875,-0.125,0.0625,0.125,0.0,0.0,0.0
1664889559768,-0.99902344,0.16015625,-0.11328125,-0.0625,0.125,0.125,0.0,0.0,0.0
1664889559812,-0.9980469,0.15332031,-0.09863281,-0.125,0.03125,0.15625,-128.125,17.0,-129.0625
1664889559858,-1.0009766,0.15234375,-0.1015625,-0.0625,0.03125,0.125,0.0,0.0,0.0
1664889559906,-1.0058594,0.15136719,-0.10546875,-0.78125,-0.21875,0.15625,0.0,0.0,0.0
1664889559929,-0.9970703,0.15234375,-0.09472656,-1.15625,0.0625,-0.0625,0.0,0.0,0.0
1664889559972,-0.99316406,0.15332031,-0.08691406,-1.40625,-0.03125,0.125,0.0,0.0,0.0
1664889560038,-1.0019531,0.15039062,-0.080078125,-1.59375,-0.03125,0.15625,0.0,0.0,0.0
1664889560063,-1.0,0.14550781,-0.095703125,-1.34375,0.25,0.0,0.0,0.0,0.0
1664889560105,-0.99902344,0.15039062,-0.08496094,-0.78125,0.125,-0.25,0.0,0.0,0.0
1664889560150,-0.99609375,0.14746094,-0.10058594,-0.375,-0.03125,0.0,0.0,0.0,0.0
1664889560172,-0.9951172,0.14355469,-0.0859375,-0.90625,0.0625,0.125,0.0,0.0,0.0
1664889560243,-1.0048828,0.14453125,-0.087890625,-0.96875,0.1875,0.125,0.0,0.0,0.0
1664889560265,-1.0019531,0.1484375,-0.09375,-0.375,0.125,0.0625,0.0,0.0,0.0
1664889560308,-1.0058594,0.14257812,-0.08105469,-0.25,0.0625,-0.0625,-126.875,17.4375,-129.9375
1664889560331,-0.99316406,0.15625,-0.09765625,-0.25,0.125,-0.125,0.0,0.0,0.0
1664889560377,-0.9873047,0.14648438,-0.09472656,0.375,0.3125,0.28125,0.0,0.0,0.0
1664889560426,-1.0,0.15234375,-0.083984375,0.3125,0.125,0.0625,0.0,0.0,0.0
1664889560469,-1.0087891,0.14746094,-0.08886719,0.5,0.3125,-0.125,0.0,0.0,0.0
1664889560490,-0.9892578,0.15234375,-0.1015625,-0.1875,0.1875,-0.125,0.0,0.0,0.0
1664889560532,-0.9970703,0.15234375,-0.1015625,-0.4375,0.375,-0.0625,0.0,0.0,0.0
1664889560578,-0.9970703,0.15234375,-0.0859375,-0.1875,0.625,0.15625,0.0,0.0,0.0
1664889560625,-1.0,0.14355469,-0.09765625,0.5,0.4375,0.125,0.0,0.0,0.0
1664889560647,-0.99902344,0.15234375,-0.0859375,0.25,0.1875,-0.3125,0.0,0.0,0.0
1664889560692,-0.9951172,0.15625,-0.09765625,-0.53125,0.25,-0.3125,0.0,0.0,0.0
1664889560781,-0.99316406,0.15722656,-0.10449219,-0.125,0.4375,-0.125,0.0,0.0,0.0
1664889560786,-0.9951172,0.15039062,-0.09375,0.90625,0.75,0.0,0.0,0.0,0.0
1664889560828,-0.99121094,0.15234375,-0.08984375,0.125,0.5625,-0.125,-129.125,17.0,-129.625
1664889560848,-0.99902344,0.14648438,-0.107421875,-0.125,0.4375,-0.125,0.0,0.0,0.0
1664889560893,-0.99316406,0.14257812,-0.09863281,-0.53125,0.625,0.0625,0.0,0.0,0.0
1664889560941,-0.99902344,0.15429688,-0.09472656,-0.4375,1.125,0.0625,0.0,0.0,0.0
1664889560990,-0.9980469,0.14746094,-0.08984375,0.125,0.875,0.0,0.0,0.0,0.0
1664889561007,-0.99609375,0.15136719,-0.091796875,-0.1875,0.0625,-0.25,0.0,0.0,0.0
1664889561050,-1.0009766,0.14648438,-0.107421875,-0.1875,0.1875,-0.375,0.0,0.0,0.0
1664889561097,-0.9980469,0.15136719,-0.1015625,-0.5,0.375,-0.0625,0.0,0.0,0.0
1664889561144,-0.99316406,0.15625,-0.09472656,0.90625,0.625,0.28125,0.0,0.0,0.0
1664889561187,-0.99609375,0.13964844,-0.091796875,0.75,0.4375,0.125,0.0,0.0,0.0
1664889561208,-1.0009766,0.1484375,-0.08984375,-0.125,0.5,-0.1875,0.0,0.0,0.0
1664889561253,-0.99609375,0.140625,-0.107421875,-1.09375,0.25,-0.0625,0.0,0.0,0.0
1664889561303,-0.9951172,0.15136719,-0.10253906,-0.4375,0.125,-0.0625,-128.25,16.375,-129.5
1664889561349,-0.9921875,0.15039062,-0.09082031,0.3125,0.3125,0.0,0.0,0.0,0.0
1664889561387,-1.0048828,0.14550781,-0.091796875,0.0625,0.3125,0.0,0.0,0.0,0.0
1664889561410,-0.9951172,0.14257812,-0.10839844,-0.1875,0.25,0.0,0.0,0.0,0.0
1664889561455,-0.9951172,0.14355469,-0.10058594,-0.0625,0.5,0.15625,0.0,0.0,0.0
1664889561503,-0.9951172,0.14550781,-0.095703125,0.0,0.25,0.15625,0.0,0.0,0.0
1664889561545,-0.9892578,0.1484375,-0.09277344,0.0,-0.15625,0.0,0.0,0.0,0.0
1664889561568,-0.99902344,0.15136719,-0.09667969,0.0,-0.09375,0.0625,0.0,0.0,0.0
1664889561614,-0.9921875,0.15136719,-0.10449219,-0.375,-0.09375,0.0625,0.0,0.0,0.0
1664889561665,-0.9873047,0.14453125,-0.0859375,-0.125,-0.09375,0.15625,0.0,0.0,0.0
1664889561705,-0.9951172,0.15039062,-0.1015625,0.96875,0.3125,0.0,0.0,0.0,0.0
1664889561727,-0.9921875,0.140625,-0.099609375,0.1875,0.25,0.21875,0.0,0.0,0.0
1664889561772,-1.0019531,0.15234375,-0.09765625,-0.53125,0.125,0.21875,0.0,0.0,0.0
1664889561815,-0.99609375,0.14941406,-0.10449219,-0.84375,0.25,0.15625,-129.125,17.5625,-129.0625
1664889561861,-0.9921875,0.14648438,-0.10058594,0.3125,0.25,0.46875,0.0,0.0,0.0
1664889561906,-1.0009766,0.14257812,-0.111328125,0.125,0.0625,0.0,0.0,0.0,0.0
1664889561929,-1.0009766,0.14746094,-0.10546875,0.3125,-0.34375,-0.0625,0.0,0.0,0.0
1664889561975,-1.0039062,0.1484375,-0.083984375,-0.84375,-0.21875,0.0,0.0,0.0,0.0
1664889562020,-0.99316406,0.15332031,-0.08984375,-0.96875,0.0625,0.28125,0.0,0.0,0.0
1664889562064,-0.99902344,0.15332031,-0.08984375,0.3125,0.1875,0.28125,0.0,0.0,0.0
1664889562086,-0.99902344,0.14648438,-0.103515625,0.375,0.1875,-0.0625,0.0,0.0,0.0
1664889562155,-1.0078125,0.15820312,-0.087890625,0.0,0.25,0.0,0.0,0.0,0.0
1664889562175,-0.9941406,0.13964844,-0.099609375,-0.84375,0.125,0.53125,0.0,0.0,0.0
1664889562224,-1.0029297,0.14550781,-0.099609375,-0.5,0.3125,0.21875,0.0,0.0,0.0
1664889562265,-0.99609375,0.14648438,-0.10449219,0.125,0.3125,0.0,0.0,0.0,0.0
1664889562288,-1.0058594,0.14941406,-0.10058594,0.0625,0.0625,0.15625,-127.9375,17.75,-129.9375
1664889562336,-0.9970703,0.140625,-0.10839844,-0.71875,0.03125,0.0,0.0,0.0,0.0
1664889562378,-0.9951172,0.15039062,-0.1015625,-0.3125,0.375,0.15625,0.0,0.0,0.0
1664889562423,-0.9941406,0.14550781,-0.09863281,0.3125,0.5,0.21875,0.0,0.0,0.0
1664889562447,-0.98828125,0.15527344,-0.11035156,0.125,0.125,0.0,0.0,0.0,0.0
1664889562489,-1.0009766,0.14550781,-0.09765625,-0.65625,0.25,0.125,0.0,0.0,0.0
1664889562535,-0.9970703,0.14941406,-0.09667969,-0.5,0.1875,0.15625,0.0,0.0,0.0
1664889562580,-0.9921875,0.1484375,-0.09277344,-0.125,0.3125,0.28125,0.0,0.0,0.0
1664889562632,-0.9970703,0.1484375,-0.109375,0.125,-0.03125,0.15625,0.0,0.0,0.0
1664889562651,-1.0019531,0.1484375,-0.09765625,0.3125,-0.21875,0.125,0.0,0.0,0.0
1664889562694,-0.99609375,0.15234375,-0.1015625,-0.59375,-0.03125,0.21875,0.0,0.0,0.0
1664889562741,-0.9970703,0.15234375,-0.10449219,-0.25,0.3125,0.21875,0.0,0.0,0.0
1664889562786,-0.9921875,0.14453125,-0.09765625,0.0625,0.5,0.21875,0.0,0.0,0.0
1664889562805,-1.0048828,0.15332031,-0.09667969,0.125,0.125,0.15625,-126.0,17.3125,-128.75
1664889562851,-1.0019531,0.15625,-0.09082031,-0.3125,0.1875,0.125,0.0,0.0,0.0
1664889562932,-0.99121094,0.14941406,-0.091796875,-0.375,0.03125,0.0625,0.0,0.0,0.0
1664889562942,-0.9902344,0.14941406,-0.10253906,-0.71875,0.1875,0.125,0.0,0.0,0.0
1664889562969,-1.0048828,0.140625,-0.08886719,-0.375,0.3125,0.28125,0.0,0.0,0.0
1664889563008,-0.9980469,0.15429688,-0.09375,0.0625,0.3125,0.40625,0.0,0.0,0.0
1664889563054,-1.0058594,0.15039062,-0.09472656,-0.0625,0.125,0.125,0.0,0.0,0.0
1664889563102,-1.0078125,0.140625,-0.10449219,0.4375,-0.15625,0.15625,0.0,0.0,0.0
1664889563143,-0.9980469,0.15332031,-0.09765625,0.3125,0.0625,0.34375,0.0,0.0,0.0
1664889563166,-0.9892578,0.15527344,-0.087890625,-0.65625,-0.09375,0.0625,0.0,0.0,0.0
1664889563210,-0.99609375,0.15234375,-0.109375,-0.25,0.125,0.15625,0.0,0.0,0.0
1664889563256,-0.984375,0.15527344,-0.095703125,-0.4375,-0.03125,0.21875,0.0,0.0,0.0
1664889563301,-0.9892578,0.15332031,-0.09082031,-0.78125,-0.09375,0.21875,-127.375,17.0,-128.75
1664889563324,-0.9951172,0.1484375,-0.103515625,0.25,-0.09375,0.21875,0.0,0.0,0.0
1664889563369,-1.0019531,0.15527344,-0.09863281,-0.3125,0.03125,0.15625,0.0,0.0,0.0
1664889563414,-0.9970703,0.15332031,-0.09765625,-0.90625,0.1875,0.0625,0.0,0.0,0.0
1664889563458,-0.99121094,0.15527344,-0.09863281,-0.84375,-0.21875,0.125,0.0,0.0,0.0
1664889563505,-0.9951172,0.14453125,-0.103515625,-0.4375,-0.40625,0.40625,0.0,0.0,0.0
1664889563526,-0.99902344,0.15234375,-0.10546875,0.1875,-0.34375,-0.0625,0.0,0.0,0.0
1664889563573,-0.9980469,0.14746094,-0.09667969,0.375,-0.21875,0.0,0.0,0.0,0.0
1664889563616,-0.9951172,0.15332031,-0.09667969,-0.0625,-0.15625,0.125,0.0,0.0,0.0
1664889563660,-0.9980469,0.15625,-0.09667969,-0.25,-0.40625,0.34375,0.0,0.0,0.0
1664889563706,-0.99609375,0.15136719,-0.095703125,-0.375,-0.28125,0.125,0.0,0.0,0.0
1664889563729,-0.9941406,0.15722656,-0.09375,-0.65625,-0.15625,0.0625,0.0,0.0,0.0
1664889563771,-1.0029297,0.15429688,-0.091796875,-0.65625,-0.15625,0.0625,0.0,0.0,0.0
1664889563818,-0.984375,0.14648438,-0.095703125,-1.28125,-0.53125,0.0,-126.625,17.5625,-128.75
1664889563869,-0.99316406,0.15234375,-0.09082031,-0.46875,0.03125,0.0,0.0,0.0,0.0
1664889563886,-0.9980469,0.14355469,-0.08105469,0.25,0.03125,-0.1875,0.0,0.0,0.0
1664889563930,-1.0009766,0.15136719,-0.08886719,-0.46875,-0.09375,-0.1875,0.0,0.0,0.0
1664889563975,-0.9921875,0.15039062,-0.08691406,-0.21875,-0.15625,-0.0625,0.0,0.0,0.0
1664889564027,-1.0029297,0.15820312,-0.07910156,-0.53125,-0.21875,-0.0625,0.0,0.0,0.0
1664889564044,-0.9970703,0.14550781,-0.10546875,-0.40625,-0.09375,0.0,0.0,0.0,0.0
1664889564088,-1.0009766,0.14746094,-0.09082031,0.0625,0.09375,-0.3125,0.0,0.0,0.0
1664889564132,-1.0039062,0.14257812,-0.08300781,0.0625,0.03125,-0.125,0.0,0.0,0.0
1664889564182,-0.9921875,0.15234375,-0.09277344,-0.53125,-0.09375,0.0,0.0,0.0,0.0
1664889564223,-1.0,0.14941406,-0.08984375,0.3125,0.09375,0.09375,0.0,0.0,0.0
1664889564246,-0.9951172,0.15039062,-0.08984375,0.0625,0.03125,-0.25,0.0,0.0,0.0
1664889564294,-0.9980469,0.14355469,-0.08496094,0.125,0.15625,-0.375,-128.125,18.3125,-130.125
1664889564340,-0.98828125,0.15722656,-0.10253906,-0.21875,-0.09375,-0.1875,0.0,0.0,0.0
1664889564383,-1.0039062,0.15625,-0.07324219,0.0625,0.09375,0.09375,0.0,0.0,0.0
1664889564402,-0.9951172,0.15234375,-0.09277344,1.0,0.46875,-0.25,0.0,0.0,0.0
1664889564448,-0.9941406,0.15917969,-0.09765625,1.0,0.21875,-0.25,0.0,0.0,0.0
1664889564494,-0.9980469,0.15234375,-0.09667969,-0.71875,0.15625,-0.25,0.0,0.0,0.0
1664889564545,-0.9921875,0.15332031,-0.09082031,-0.09375,0.21875,-0.25,0.0,0.0,0.0
1664889564584,-1.0029297,0.14453125,-0.09765625,0.375,0.53125,-0.1875,0.0,0.0,0.0
1664889564606,-1.0019531,0.15039062,-0.09863281,0.3125,0.09375,-0.3125,0.0,0.0,0.0
1664889564652,-0.9970703,0.15429688,-0.083984375,0.0,0.09375,-0.3125,0.0,0.0,0.0
1664889564705,-0.98828125,0.15429688,-0.0859375,0.125,0.28125,-0.25,0.0,0.0,0.0
1664889564745,-0.9892578,0.14648438,-0.111328125,0.5625,0.46875,-0.125,0.0,0.0,0.0
1664889564763,-0.9980469,0.15332031,-0.095703125,0.5625,0.15625,-0.25,0.0,0.0,0.0
1664889564808,-1.0019531,0.14257812,-0.08984375,0.1875,-0.03125,-0.1875,-126.3125,17.5625,-129.375
1664889564852,-0.99902344,0.15136719,-0.10644531,-0.46875,-0.15625,-0.375,0.0,0.0,0.0
1664889564903,-0.9921875,0.15234375,-0.080078125,-0.09375,0.34375,-0.0625,0.0,0.0,0.0
1664889564942,-0.9941406,0.15332031,-0.08496094,0.4375,0.28125,0.0,0.0,0.0,0.0
1664889564965,-1.0019531,0.1484375,-0.087890625,-0.15625,0.15625,-0.3125,0.0,0.0,0.0
1664889565012,-1.0048828,0.15234375,-0.091796875,-0.59375,0.09375,-0.5,0.0,0.0,0.0
1664889565058,-1.0009766,0.1484375,-0.09082031,-0.09375,-0.09375,-0.125,0.0,0.0,0.0
1664889565114,-0.9892578,0.15039062,-0.09765625,0.5625,0.21875,-0.125,0.0,0.0,0.0
1664889565123,-1.0009766,0.15625,-0.103515625,1.53125,0.46875,-0.0625,0.0,0.0,0.0
1664889565192,-1.0039062,0.15332031,-0.080078125,0.3125,-0.03125,-0.3125,0.0,0.0,0.0
1664889565215,-0.99902344,0.14648438,-0.08496094,-0.34375,-0.15625,-0.25,0.0,0.0,0.0
1664889565257,-0.99609375,0.14550781,-0.09765625,0.0625,0.15625,-0.3125,0.0,0.0,0.0
1664889565302,-1.0058594,0.15820312,-0.08886719,0.5,0.40625,-0.0625,-126.0,17.0,-129.375
1664889565324,-0.99609375,0.14746094,-0.087890625,0.0,0.21875,-0.25,0.0,0.0,0.0
1664889565369,-1.0009766,0.14257812,-0.08105469,0.0,0.09375,-0.1875,0.0,0.0,0.0
1664889565415,-0.99609375,0.14648438,-0.08886719,-0.40625,0.21875,-0.1875,0.0,0.0,0.0
1664889565460,-0.9980469,0.14941406,-0.095703125,0.3125,0.6875,0.03125,0.0,0.0,0.0
1664889565485,-0.9941406,0.15429688,-0.095703125,0.75,0.40625,0.0,0.0,0.0,0.0
1664889565530,-1.0009766,0.15234375,-0.095703125,-0.21875,0.09375,-0.3125,0.0,0.0,0.0
1664889565572,-0.99121094,0.15820312,-0.09765625,-0.53125,0.09375,-0.3125,0.0,0.0,0.0
1664889565619,-1.0039062,0.15136719,-0.09472656,-0.53125,0.15625,-0.25,0.0,0.0,0.0
1664889565664,-0.98535156,0.15527344,-0.10644531,-0.09375,0.53125,-0.25,0.0,0.0,0.0
1664889565686,-0.99902344,0.14648438,-0.08691406,0.6875,0.875,0.15625,0.0,0.0,0.0
1664889565733,-0.984375,0.15625,-0.08105469,0.25,0.5625,0.09375,0.0,0.0,0.0
1664889565774,-1.0068359,0.14355469,-0.09863281,-0.03125,0.28125,-0.125,0.0,0.0,0.0
1664889565822,-0.99121094,0.15527344,-0.10449219,0.0,-0.09375,-0.3125,-127.8125,19.375,-129.0625
1664889565852,-0.99121094,0.15527344,-0.10546875,0.1875,0.15625,-0.125,0.0,0.0,0.0
1664889565888,-0.99609375,0.14648438,-0.095703125,0.125,0.34375,-0.125,0.0,0.0,0.0
1664889565959,-0.9873047,0.15039062,-0.09667969,-0.03125,0.21875,-0.1875,0.0,0.0,0.0
1664889565978,-0.9921875,0.15136719,-0.099609375,-0.03125,0.53125,0.15625,0.0,0.0,0.0
1664889566003,-1.0,0.13867188,-0.10253906,0.1875,0.46875,0.03125,0.0,0.0,0.0
1664889566045,-1.0048828,0.15625,-0.083984375,-0.09375,0.03125,-0.125,0.0,0.0,0.0
1664889566089,-0.9970703,0.14160156,-0.095703125,-0.03125,-0.40625,-0.125,0.0,0.0,0.0
1664889566135,-0.99316406,0.15136719,-0.10449219,-0.90625,-0.21875,-0.3125,0.0,0.0,0.0
1664889566180,-0.9892578,0.1484375,-0.10253906,-0.53125,0.53125,0.09375,0.0,0.0,0.0
1664889566203,-0.99609375,0.14160156,-0.09765625,0.75,0.28125,0.21875,0.0,0.0,0.0
1664889566247,-0.99902344,0.14648438,-0.08105469,0.625,-0.28125,-0.3125,0.0,0.0,0.0
1664889566293,-0.99902344,0.15234375,-0.09765625,-0.40625,-0.40625,-0.5625,-127.1875,17.4375,-129.1875
1664889566337,-0.99316406,0.15136719,-0.09765625,-0.40625,-0.53125,0.03125,0.0,0.0,0.0
1664889566360,-1.0039062,0.14550781,-0.09277344,0.375,-0.21875,-0.1875,0.0,0.0,0.0
1664889566406,-1.0048828,0.1484375,-0.08105469,0.3125,0.09375,-0.4375,0.0,0.0,0.0
1664889566452,-1.0019531,0.14648438,-0.09375,1.0,0.03125,-0.0625,0.0,0.0,0.0
1664889566520,-0.9951172,0.15234375,-0.09277344,-0.53125,-0.21875,-0.375,0.0,0.0,0.0
1664889566541,-0.9970703,0.14355469,-0.08984375,0.25,0.03125,0.0,0.0,0.0,0.0
1664889566566,-0.99609375,0.15039062,-0.087890625,1.34375,0.5625,0.03125,0.0,0.0,0.0
1664889566609,-1.0,0.15039062,-0.07910156,0.8125,0.6875,-0.1875,0.0,0.0,0.0
1664889566652,-0.9951172,0.15722656,-0.099609375,-0.28125,0.15625,-0.5,0.0,0.0,0.0
1664889566698,-0.9863281,0.15917969,-0.09277344,-0.53125,-0.28125,-0.3125,0.0,0.0,0.0
1664889566723,-0.9980469,0.14941406,-0.09765625,0.1875,0.46875,-0.3125,0.0,0.0,0.0
1664889566765,-0.99902344,0.15234375,-0.09863281,0.8125,0.875,-0.3125,0.0,0.0,0.0
1664889566810,-1.0019531,0.15136719,-0.09082031,0.6875,0.40625,-0.25,-126.625,17.3125,-129.375
1664889566858,-0.99121094,0.14746094,-0.095703125,-0.71875,0.21875,-0.5,0.0,0.0,0.0
1664889566906,-0.9980469,0.13964844,-0.08984375,-0.28125,0.21875,-0.375,0.0,0.0,0.0
1664889566925,-0.9951172,0.140625,-0.095703125,0.9375,0.21875,-0.1875,0.0,0.0,0.0
1664889566973,-1.0087891,0.140625,-0.09277344,0.3125,0.09375,-0.5625,0.0,0.0,0.0
1664889567012,-0.99609375,0.14453125,-0.11035156,-0.03125,0.34375,-0.4375,0.0,0.0,0.0
1664889567056,-1.0048828,0.14550781,-0.087890625,0.0625,0.09375,-0.375,0.0,0.0,0.0
1664889567080,-0.9921875,0.14257812,-0.0859375,-0.78125,0.34375,-0.3125,0.0,0.0,0.0
1664889567124,-1.0019531,0.13964844,-0.087890625,0.6875,0.28125,-0.5625,0.0,0.0,0.0
1664889567169,-1.0048828,0.15039062,-0.10253906,0.375,0.09375,-0.5,0.0,0.0,0.0
1664889567216,-0.99902344,0.1484375,-0.09082031,-0.09375,-0.21875,-0.5,0.0,0.0,0.0
1664889567260,-0.9941406,0.14550781,-0.11230469,-0.53125,0.03125,-0.25,0.0,0.0,0.0
1664889567287,-1.0009766,0.15332031,-0.09375,0.9375,0.34375,-0.125,-128.125,17.3125,-129.375
1664889567328,-1.0048828,0.13769531,-0.107421875,1.125,-0.03125,-0.375,0.0,0.0,0.0
1664889567373,-0.9980469,0.1484375,-0.10058594,-0.21875,-0.34375,-0.625,0.0,0.0,0.0
1664889567419,-0.9921875,0.15332031,-0.09277344,-1.09375,-0.28125,-0.625,0.0,0.0,0.0
1664889567441,-0.99316406,0.14746094,-0.09667969,-0.53125,-0.03125,-0.375,0.0,0.0,0.0
1664889567485,-1.0009766,0.13867188,-0.091796875,0.6875,0.09375,-0.125,0.0,0.0,0.0
1664889567529,-1.0019531,0.14550781,-0.09472656,0.5625,-0.46875,-0.375,0.0,0.0,0.0
1664889567576,-1.0,0.15039062,-0.0859375,-0.28125,-0.34375,-0.5,0.0,0.0,0.0
1664889567625,-1.0009766,0.14746094,-0.09082031,-0.28125,-0.28125,-0.3125,0.0,0.0,0.0
1664889567643,-0.99609375,0.14453125,-0.09863281,-0.59375,0.03125,0.09375,0.0,0.0,0.0
1664889567688,-0.9941406,0.13476562,-0.091796875,0.5,0.46875,0.09375,0.0,0.0,0.0
1664889567737,-0.99902344,0.14550781,-0.068359375,0.0625,0.40625,-0.125,0.0,0.0,0.0
1664889567780,-1.0107422,0.140625,-0.0859375,-0.28125,0.15625,0.0,0.0,0.0,0.0
1664889567802,-0.9941406,0.14257812,-0.09863281,-0.65625,-0.21875,-0.125,-127.1875,17.4375,-130.5625
1664889567848,-1.0019531,0.14648438,-0.087890625,-0.09375,0.03125,-0.0625,0.0,0.0,0.0
1664889567893,-0.99121094,0.14160156,-0.08105469,0.8125,0.09375,-0.0625,0.0,0.0,0.0
1664889567936,-1.0029297,0.15136719,-0.08203125,0.4375,0.03125,-0.125,0.0,0.0,0.0
1664889567983,-0.99316406,0.14648438,-0.08691406,-0.53125,-0.09375,-0.3125,0.0,0.0,0.0
1664889568004,-0.9951172,0.14355469,-0.095703125,-0.71875,-0.09375,0.03125,0.0,0.0,0.0
1664889568051,-0.99121094,0.14941406,-0.08496094,-0.59375,-0.09375,0.15625,0.0,0.0,0.0
1664889568093,-1.0068359,0.13574219,-0.09667969,-0.71875,-0.28125,-0.0625,0.0,0.0,0.0
1664889568140,-0.99609375,0.15332031,-0.09082031,-1.21875,-0.59375,-0.25,0.0,0.0,0.0
1664889568161,-0.9951172,0.14257812,-0.09082031,-0.03125,-0.40625,-0.0625,0.0,0.0,0.0
1664889568228,-0.99609375,0.14941406,-0.08886719,-0.90625,-0.46875,-0.125,0.0,0.0,0.0
1664889568254,-1.0019531,0.14746094,-0.08984375,-0.21875,0.03125,-0.0625,0.0,0.0,0.0
1664889568296,-0.99902344,0.13769531,-0.08496094,0.3125,0.09375,-0.0625,-127.8125,17.3125,-129.0625
1664889568340,-0.99316406,0.14648438,-0.08203125,-0.03125,-0.28125,0.09375,0.0,0.0,0.0
1664889568367,-1.0009766,0.13574219,-0.091796875,-0.40625,-0.53125,-0.25,0.0,0.0,0.0
1664889568411,-0.99609375,0.140625,-0.09472656,-0.03125,-0.15625,-0.25,0.0,0.0,0.0
1664889568455,-1.0,0.15917969,-0.07910156,0.75,-0.09375,-0.0625,0.0,0.0,0.0
1664889568502,-0.9970703,0.140625,-0.0859375,0.5625,-0.15625,-0.25,0.0,0.0,0.0
1664889568526,-0.9941406,0.14550781,-0.07421875,-0.15625,-0.15625,-0.3125,0.0,0.0,0.0
1664889568569,-1.0019531,0.13671875,-0.06542969,-0.40625,-0.34375,-0.0625,0.0,0.0,0.0
1664889568611,-1.0048828,0.14550781,-0.080078125,-0.59375,-0.40625,-0.25,0.0,0.0,0.0
1664889568657,-1.0009766,0.140625,-0.078125,-0.53125,0.09375,-0.125,0.0,0.0,0.0
1664889568703,-0.9921875,0.140625,-0.08886719,0.375,-0.03125,0.0,0.0,0.0,0.0
1664889568724,-1.0039062,0.14648438,-0.07421875,-0.09375,-0.15625,-0.125,0.0,0.0,0.0
1664889568770,-0.9980469,0.14453125,-0.07421875,-0.40625,-0.03125,-0.125,0.0,0.0,0.0
1664889568818,-0.99316406,0.14453125,-0.07421875,0.1875,0.09375,-0.0625,-127.1875,18.1875,-128.875
1664889568859,-1.0048828,0.13476562,-0.07910156,0.1875,0.03125,-0.125,0.0,0.0,0.0
1664889568883,-1.0019531,0.14941406,-0.099609375,-0.59375,-0.21875,-0.25,0.0,0.0,0.0
1664889568926,-0.9970703,0.14453125,-0.08496094,-0.40625,-0.09375,-0.25,0.0,0.0,0.0
1664889568996,-1.0048828,0.14550781,-0.0859375,-0.96875,-0.21875,-0.375,0.0,0.0,0.0
1664889569018,-0.99902344,0.14160156,-0.083984375,-0.40625,0.28125,-0.25,0.0,0.0,0.0
1664889569039,-0.9921875,0.14355469,-0.08691406,0.375,0.21875,-0.0625,0.0,0.0,0.0
1664889569083,-1.0019531,0.14257812,-0.08300781,-0.03125,-0.28125,-0.1875,0.0,0.0,0.0
1664889569129,-0.9951172,0.13671875,-0.08691406,-0.53125,-0.40625,-0.375,0.0,0.0,0.0
1664889569173,-0.9941406,0.140625,-0.0625,-0.28125,-0.40625,-0.375,0.0,0.0,0.0
1664889569216,-1.0,0.14550781,-0.09082031,0.5,-0.28125,-0.375,0.0,0.0,0.0
1664889569239,-1.0039062,0.14550781,-0.07324219,0.0625,-0.09375,-0.3125,0.0,0.0,0.0
1664889569285,-0.9941406,0.14257812,-0.0859375,-0.03125,0.28125,-0.125,-127.9375,17.4375,-128.875
1664889569330,-1.0048828,0.13964844,-0.08984375,-0.46875,-0.28125,-0.1875,0.0,0.0,0.0
1664889569376,-0.9970703,0.13769531,-0.08105469,-1.09375,-0.03125,-0.375,0.0,0.0,0.0
1664889569401,-0.9980469,0.13867188,-0.068359375,0.3125,-0.21875,-0.375,0.0,0.0,0.0
1664889569443,-1.0126953,0.13867188,-0.06738281,0.375,-0.09375,-0.4375,0.0,0.0,0.0
1664889569489,-1.0,0.13964844,-0.083984375,-0.28125,-0.03125,-0.125,0.0,0.0,0.0
1664889569533,-0.9970703,0.12988281,-0.06933594,-0.59375,-0.03125,-0.3125,0.0,0.0,0.0
1664889569577,-0.9921875,0.15332031,-0.080078125,-0.46875,-0.15625,-0.3125,0.0,0.0,0.0
1664889569601,-0.9980469,0.13476562,-0.07714844,-0.53125,-0.15625,-0.3125,0.0,0.0,0.0
1664889569647,-1.0078125,0.14453125,-0.07714844,-0.96875,-0.46875,-0.5,0.0,0.0,0.0
1664889569690,-0.99902344,0.13671875,-0.08886719,-0.53125,-0.59375,-0.5,0.0,0.0,0.0
1664889569763,-1.0039062,0.14355469,-0.07324219,-1.21875,-0.46875,-0.375,0.0,0.0,0.0
1664889569767,-1.0058594,0.12988281,-0.07421875,-1.09375,-0.46875,-0.25,0.0,0.0,0.0
1664889569803,-1.0019531,0.12988281,-0.08691406,-1.375,-0.34375,-0.6875,-127.1875,17.125,-129.9375
1664889569849,-0.99609375,0.140625,-0.08496094,0.0625,-0.53125,-0.375,0.0,0.0,0.0
1664889569895,-1.0058594,0.13964844,-0.08886719,-0.65625,-0.59375,-0.375,0.0,0.0,0.0
1664889569939,-0.99316406,0.13769531,-0.08886719,-2.0,-0.03125,-0.375,0.0,0.0,0.0
1664889569963,-0.99121094,0.13085938,-0.064453125,0.5,0.09375,-0.125,0.0,0.0,0.0
1664889570005,-1.0019531,0.13085938,-0.064453125,-0.15625,0.09375,-0.1875,0.0,0.0,0.0
1664889570051,-1.0,0.13378906,-0.0703125,-0.03125,0.03125,-0.25,0.0,0.0,0.0
1664889570097,-0.9970703,0.13769531,-0.068359375,-0.03125,-0.34375,-0.0625,0.0,0.0,0.0
1664889570126,-0.9951172,0.13671875,-0.07421875,-0.09375,-0.03125,-0.25,0.0,0.0,0.0
1664889570166,-1.0029297,0.13378906,-0.08300781,0.875,-0.03125,-0.0625,0.0,0.0,0.0
1664889570208,-0.99121094,0.13867188,-0.07910156,1.59375,-0.28125,-0.25,0.0,0.0,0.0
1664889570253,-0.99902344,0.1328125,-0.056640625,1.0,-0.15625,0.03125,0.0,0.0,0.0
1664889570320,-1.0009766,0.14257812,-0.083984375,-0.28125,-0.28125,-0.1875,-128.25,15.625,-128.4375
1664889570324,-1.0048828,0.1328125,-0.08105469,0.125,-0.03125,-0.4375,0.0,0.0,0.0
1664889570370,-1.0029297,0.1328125,-0.07128906,0.0625,-0.21875,-0.3125,0.0,0.0,0.0
1664889570415,-0.9921875,0.123046875,-0.072265625,-1.9375,-0.28125,-0.125,0.0,0.0,0.0
1664889570457,-1.0146484,0.12597656,-0.068359375,-1.09375,-0.21875,-0.8125,0.0,0.0,0.0
1664889570482,-0.99121094,0.13476562,-0.06933594,0.25,0.15625,-0.0625,0.0,0.0,0.0
1664889570522,-1.0068359,0.12207031,-0.05859375,1.34375,-0.15625,-0.0625,0.0,0.0,0.0
1664889570569,-1.0146484,0.14160156,-0.08496094,-0.34375,-0.59375,-0.4375,0.0,0.0,0.0
1664889570616,-0.9951172,0.13085938,-0.059570312,-0.46875,-0.59375,-0.1875,0.0,0.0,0.0
1664889570660,-1.0097656,0.12890625,-0.06738281,-0.46875,-1.1875,-0.3125,0.0,0.0,0.0
1664889570687,-0.9980469,0.13769531,-0.068359375,-0.28125,-1.375,-0.625,0.0,0.0,0.0
1664889570726,-0.99121094,0.13378906,-0.0703125,0.0,-1.0,-0.625,0.0,0.0,0.0
1664889570771,-0.99902344,0.13769531,-0.07324219,1.84375,-0.21875,0.09375,0.0,0.0,0.0
1664889570821,-1.0078125,0.1328125,-0.052734375,0.75,-0.40625,-0.1875,-127.375,17.3125,-128.75
1664889570838,-0.99902344,0.13574219,-0.061523438,-0.53125,-0.59375,-0.6875,0.0,0.0,0.0
1664889570883,-1.0009766,0.13476562,-0.053710938,-0.09375,-0.65625,-0.25,0.0,0.0,0.0
1664889570929,-1.0058594,0.12597656,-0.07714844,0.0625,-0.46875,-0.0625,0.0,0.0,0.0
1664889570975,-0.9980469,0.13378906,-0.06347656,0.625,-0.34375,-0.375,0.0,0.0,0.0
1664889571017,-1.0078125,0.13476562,-0.06542969,1.28125,-0.40625,-0.125,0.0,0.0,0.0
1664889571041,-1.0019531,0.13964844,-0.061523438,-0.78125,-0.09375,-0.0625,0.0,0.0,0.0
1664889571088,-1.0039062,0.12792969,-0.064453125,-0.15625,0.15625,0.28125,0.0,0.0,0.0
1664889571130,-1.0068359,0.13574219,-0.05859375,1.0,0.15625,0.15625,0.0,0.0,0.0
1664889571180,-1.0,0.12597656,-0.08203125,1.25,0.40625,-0.0625,0.0,0.0,0.0
1664889571200,-1.0039062,0.15136719,-0.06347656,0.4375,0.875,0.21875,0.0,0.0,0.0
1664889571245,-1.0029297,0.123046875,-0.046875,-1.21875,-0.15625,0.65625,0.0,0.0,0.0
1664889571289,-1.0058594,0.11816406,-0.08105469,0.0,-0.53125,0.84375,-128.6875,16.0625,-127.875
1664889571336,-1.0039062,0.14257812,-0.061523438,2.75,-0.28125,-0.25,0.0,0.0,0.0
1664889571377,-1.0136719,0.12792969,-0.046875,0.0625,0.03125,-0.5625,0.0,0.0,0.0
1664889571400,-1.0039062,0.13574219,-0.0625,-1.15625,0.6875,0.40625,0.0,0.0,0.0
1664889571451,-1.0048828,0.12890625,-0.0546875,0.875,0.46875,1.03125,0.0,0.0,0.0
1664889571490,-1.0,0.12207031,-0.049804688,1.59375,-0.09375,-0.0625,0.0,0.0,0.0
1664889571536,-1.0078125,0.13769531,-0.0703125,0.25,-0.09375,-0.5625,0.0,0.0,0.0
1664889571561,-1.0019531,0.14746094,-0.059570312,-0.96875,-0.21875,0.21875,0.0,0.0,0.0
1664889571606,-0.9921875,0.13671875,-0.0625,-0.96875,-0.21875,0.53125,0.0,0.0,0.0
1664889571647,-1.0029297,0.12011719,-0.06347656,0.6875,0.34375,0.28125,0.0,0.0,0.0
1664889571694,-1.0068359,0.14355469,-0.055664062,0.9375,-0.09375,-0.375,0.0,0.0,0.0
1664889571738,-0.9951172,0.13476562,-0.045898438,-0.78125,-0.03125,0.15625,0.0,0.0,0.0
1664889571762,-0.9980469,0.12402344,-0.07324219,-1.375,-0.21875,0.0,0.0,0.0,0.0
1664889571805,-0.99902344,0.13769531,-0.064453125,-0.34375,0.15625,0.59375,-128.375,17.5625,-127.25
1664889571850,-0.99609375,0.12402344,-0.060546875,1.0625,-0.09375,0.59375,0.0,0.0,0.0
1664889571897,-0.99316406,0.13378906,-0.053710938,0.6875,0.15625,0.53125,0.0,0.0,0.0
1664889571918,-1.0009766,0.14257812,-0.061523438,-0.09375,0.03125,0.40625,0.0,0.0,0.0
1664889571962,-1.0009766,0.14550781,-0.0625,-0.78125,-0.40625,0.65625,0.0,0.0,0.0
1664889572039,-1.0029297,0.13671875,-0.049804688,-0.84375,-0.65625,0.46875,0.0,0.0,0.0
1664889572053,-1.0019531,0.12988281,-0.049804688,0.25,-0.09375,0.09375,0.0,0.0,0.0
1664889572078,-1.0019531,0.12597656,-0.051757812,-0.09375,-0.03125,-0.3125,0.0,0.0,0.0
1664889572120,-0.99902344,0.14355469,-0.057617188,-1.375,-0.03125,-0.375,0.0,0.0,0.0
1664889572168,-0.99316406,0.13085938,-0.041992188,-1.09375,0.75,0.03125,0.0,0.0,0.0
1664889572212,-0.99316406,0.13574219,-0.055664062,1.71875,0.5625,0.0,0.0,0.0,0.0
1664889572256,-1.0019531,0.13671875,-0.057617188,0.6875,0.875,-0.25,0.0,0.0,0.0
1664889572278,-1.0009766,0.14355469,-0.057617188,-0.96875,0.875,-0.5625,-127.9375,17.75,-127.125
1664889572330,-1.0029297,0.15039062,-0.06738281,-0.46875,0.28125,-0.1875,0.0,0.0,0.0
1664889572370,-0.99902344,0.13476562,-0.07421875,-0.34375,0.75,0.15625,0.0,0.0,0.0
1664889572415,-0.9970703,0.13378906,-0.07324219,0.125,0.8125,0.0,0.0,0.0,0.0
1664889572437,-0.99902344,0.13964844,-0.06347656,0.625,0.625,-0.125,0.0,0.0,0.0
1664889572480,-1.0058594,0.14160156,-0.052734375,-0.59375,0.75,-0.25,0.0,0.0,0.0
1664889572527,-1.0019531,0.13671875,-0.059570312,-1.375,0.5625,-0.25,0.0,0.0,0.0
1664889572570,-1.0019531,0.1328125,-0.053710938,-0.21875,0.34375,0.0,0.0,0.0,0.0
1664889572616,-0.9970703,0.12695312,-0.047851562,0.125,0.6875,0.03125,0.0,0.0,0.0
1664889572661,-1.0107422,0.13085938,-0.0546875,0.0,0.75,-0.1875,0.0,0.0,0.0
1664889572683,-0.9941406,0.13574219,-0.0546875,-0.21875,0.875,0.09375,0.0,0.0,0.0
1664889572729,-0.9951172,0.13183594,-0.052734375,0.0625,0.875,0.09375,0.0,0.0,0.0
1664889572795,-1.0029297,0.13867188,-0.055664062,0.125,0.5625,-0.1875,0.0,0.0,0.0
1664889572799,-1.0,0.13574219,-0.06640625,-0.46875,0.5625,-0.25,-128.125,17.3125,-127.6875
1664889572842,-0.9921875,0.13671875,-0.06738281,-0.90625,0.625,0.21875,0.0,0.0,0.0
1664889572886,-1.0029297,0.12597656,-0.072265625,-0.03125,0.46875,0.34375,0.0,0.0,0.0
1664889572930,-1.0019531,0.14160156,-0.056640625,1.125,0.53125,0.09375,0.0,0.0,0.0
1664889572977,-1.0048828,0.14257812,-0.060546875,0.8125,0.5625,0.03125,0.0,0.0,0.0
1664889572998,-1.0039062,0.12402344,-0.06640625,0.125,0.46875,0.15625,0.0,0.0,0.0
1664889573044,-0.9951172,0.13964844,-0.07128906,0.125,0.53125,0.21875,0.0,0.0,0.0
1664889573111,-1.0,0.13574219,-0.07910156,0.1875,0.40625,0.03125,0.0,0.0,0.0
1664889573137,-1.0078125,0.13964844,-0.061523438,-0.46875,0.09375,0.0,0.0,0.0,0.0
1664889573156,-0.99609375,0.13183594,-0.061523438,-0.65625,0.40625,0.34375,0.0,0.0,0.0
1664889573225,-1.0117188,0.12792969,-0.07421875,0.0625,-0.09375,0.03125,0.0,0.0,0.0
1664889573251,-0.9902344,0.12402344,-0.059570312,-0.15625,0.21875,0.40625,0.0,0.0,0.0
1664889573290,-1.0068359,0.13085938,-0.07128906,0.875,0.34375,0.46875,-128.25,17.125,-127.875
1664889573358,-1.0019531,0.14355469,-0.07519531,0.9375,0.40625,0.46875,0.0,0.0,0.0
1664889573362,-1.0019531,0.13574219,-0.06347656,0.0,0.40625,0.34375,0.0,0.0,0.0
1664889573402,-1.0009766,0.13574219,-0.07128906,-1.03125,0.5625,0.28125,0.0,0.0,0.0
1664889573448,-1.0048828,0.1328125,-0.0546875,-0.59375,0.53125,0.28125,0.0,0.0,0.0
1664889573499,-0.99609375,0.13574219,-0.0703125,-0.15625,0.6875,0.53125,0.0,0.0,0.0
1664889573516,-0.99902344,0.13378906,-0.059570312,-0.28125,0.6875,0.28125,0.0,0.0,0.0
1664889573560,-1.0039062,0.13964844,-0.078125,-0.59375,0.625,0.28125,0.0,0.0,0.0
1664889573606,-0.9970703,0.14550781,-0.068359375,-0.46875,0.8125,0.28125,0.0,0.0,0.0
1664889573652,-1.0,0.13671875,-0.052734375,-0.84375,0.625,0.46875,0.0,0.0,0.0
1664889573700,-1.0,0.13476562,-0.06640625,0.125,0.40625,0.15625,0.0,0.0,0.0
1664889573722,-1.0097656,0.13574219,-0.064453125,0.125,0.34375,0.0,0.0,0.0,0.0
1664889573764,-1.0107422,0.13476562,-0.07324219,-0.90625,0.34375,0.21875,0.0,0.0,0.0
1664889573808,-1.0009766,0.14746094,-0.07324219,0.6875,0.9375,0.28125,-126.875,17.125,-128.4375
1664889573856,-1.0068359,0.13964844,-0.07324219,0.0625,0.53125,0.21875,0.0,0.0,0.0
1664889573875,-1.0078125,0.13476562,-0.072265625,-0.15625,0.46875,0.15625,0.0,0.0,0.0
1664889573921,-0.9970703,0.14355469,-0.06640625,-0.21875,0.34375,0.21875,0.0,0.0,0.0
1664889573966,-1.0019531,0.140625,-0.07421875,-0.15625,0.5625,0.15625,0.0,0.0,0.0
1664889574016,-0.99902344,0.15039062,-0.08300781,-0.90625,1.0,0.34375,0.0,0.0,0.0
1664889574058,-0.99902344,0.14355469,-0.059570312,-0.34375,1.0625,0.28125,0.0,0.0,0.0
1664889574079,-1.0029297,0.13085938,-0.068359375,-0.21875,0.5625,0.28125,0.0,0.0,0.0
1664889574147,-1.0009766,0.13964844,-0.07324219,0.6875,0.21875,0.15625,0.0,0.0,0.0
1664889574171,-0.99902344,0.14648438,-0.06933594,1.34375,0.28125,0.15625,0.0,0.0,0.0
1664889574216,-1.0019531,0.13867188,-0.08105469,1.28125,0.46875,0.34375,0.0,0.0,0.0
1664889574239,-1.0029297,0.13964844,-0.08203125,0.625,0.40625,0.15625,0.0,0.0,0.0
1664889574283,-1.0009766,0.14550781,-0.068359375,-0.71875,0.8125,0.21875,-127.1875,16.6875,-127.5625
1664889574328,-0.9970703,0.13964844,-0.072265625,-0.15625,0.875,0.40625,0.0,0.0,0.0
1664889574395,-1.0019531,0.14746094,-0.05859375,0.5625,0.46875,0.65625,0.0,0.0,0.0
1664889574418,-1.0048828,0.140625,-0.07421875,-0.46875,0.53125,0.0,0.0,0.0,0.0
1664889574445,-0.9980469,0.14746094,-0.0703125,-0.59375,0.40625,-0.0625,0.0,0.0,0.0
1664889574505,-1.0009766,0.14355469,-0.060546875,-0.28125,0.5625,0.15625,0.0,0.0,0.0
1664889574527,-1.0009766,0.12695312,-0.06640625,-0.28125,0.75,0.46875,0.0,0.0,0.0
1664889574575,-1.0048828,0.13183594,-0.064453125,0.125,0.75,0.03125,0.0,0.0,0.0
1664889574598,-1.0078125,0.13769531,-0.07421875,-0.28125,0.53125,-0.0625,0.0,0.0,0.0
1664889574664,-0.9951172,0.14550781,-0.068359375,-0.96875,0.875,0.21875,0.0,0.0,0.0
1664889574689,-1.0039062,0.13867188,-0.076171875,0.125,0.75,0.53125,0.0,0.0,0.0
1664889574730,-0.99609375,0.140625,-0.08203125,0.4375,0.53125,0.09375,0.0,0.0,0.0
1664889574776,-0.9980469,0.14453125,-0.068359375,0.375,0.6875,0.03125,0.0,0.0,0.0
1664889574800,-0.9921875,0.15136719,-0.0625,-0.34375,0.875,0.46875,-128.25,17.125,-128.125
1664889574847,-1.0009766,0.13964844,-0.048828125,0.4375,0.9375,0.40625,0.0,0.0,0.0
1664889574891,-1.0068359,0.140625,-0.06640625,1.1875,0.5625,0.28125,0.0,0.0,0.0
1664889574933,-0.99316406,0.15136719,-0.07421875,1.0,0.5625,0.28125,0.0,0.0,0.0
1664889574962,-1.0,0.14550781,-0.07910156,0.6875,0.46875,0.28125,0.0,0.0,0.0
1664889575000,-0.98828125,0.14355469,-0.078125,-0.59375,1.125,0.09375,0.0,0.0,0.0
1664889575068,-0.9921875,0.14648438,-0.07910156,0.4375,1.4375,0.34375,0.0,0.0,0.0
1664889575092,-0.9980469,0.140625,-0.080078125,0.625,1.1875,0.21875,0.0,0.0,0.0
1664889575113,-1.0,0.13867188,-0.076171875,0.5,1.125,0.15625,0.0,0.0,0.0
1664889575159,-1.0009766,0.14355469,-0.068359375,1.0,0.75,-0.0625,0.0,0.0,0.0
1664889575205,-0.9970703,0.14941406,-0.09082031,0.9375,0.625,0.03125,0.0,0.0,0.0
1664889575248,-1.0019531,0.13867188,-0.08105469,1.1875,0.46875,-0.25,0.0,0.0,0.0
1664889575294,-0.9951172,0.14550781,-0.08300781,0.375,0.21875,-0.25,-128.125,18.0625,-129.0625
1664889575317,-0.9951172,0.15332031,-0.07714844,-0.59375,0.28125,-0.1875,0.0,0.0,0.0
1664889575362,-0.9970703,0.14257812,-0.068359375,-0.53125,0.40625,-0.1875,0.0,0.0,0.0
1664889575406,-0.99902344,0.13183594,-0.08105469,-0.40625,-0.09375,-0.3125,0.0,0.0,0.0
1664889575450,-0.9951172,0.13964844,-0.0859375,0.0,-0.28125,-0.5625,0.0,0.0,0.0
1664889575476,-0.99609375,0.14160156,-0.0859375,0.375,0.03125,-0.25,0.0,0.0,0.0
1664889575519,-0.99902344,0.14550781,-0.09765625,0.125,0.09375,-0.125,0.0,0.0,0.0
1664889575564,-1.0048828,0.14355469,-0.072265625,-0.03125,-0.15625,-0.3125,0.0,0.0,0.0
1664889575612,-1.0019531,0.14550781,-0.07519531,0.25,-0.28125,-0.5,0.0,0.0,0.0
1664889575655,-1.0,0.13964844,-0.083984375,0.625,-0.53125,-0.5625,0.0,0.0,0.0
1664889575677,-0.9980469,0.13671875,-0.08300781,0.3125,-0.40625,-0.375,0.0,0.0,0.0
1664889575721,-0.99902344,0.1484375,-0.07714844,0.375,-0.21875,-0.1875,0.0,0.0,0.0
1664889575765,-0.99609375,0.15234375,-0.078125,0.375,-0.09375,-0.1875,0.0,0.0,0.0
1664889575833,-1.0,0.13769531,-0.07128906,0.3125,-0.21875,-0.25,-127.1875,18.1875,-129.1875
1664889575879,-1.0029297,0.14746094,-0.078125,-0.84375,-0.40625,-0.25,0.0,0.0,0.0
1664889575883,-0.99316406,0.13964844,-0.07714844,-0.53125,-0.21875,-0.125,0.0,0.0,0.0
1664889575924,-0.99902344,0.13378906,-0.08300781,0.625,-0.03125,-0.1875,0.0,0.0,0.0
1664889575970,-1.0019531,0.13867188,-0.076171875,1.0,-0.21875,-0.25,0.0,0.0,0.0
1664889576014,-0.99902344,0.13671875,-0.080078125,0.0625,-0.65625,-0.25,0.0,0.0,0.0
1664889576036,-0.9980469,0.1484375,-0.080078125,0.0625,-0.28125,0.0,0.0,0.0,0.0
1664889576080,-0.9980469,0.13769531,-0.07324219,0.125,-0.09375,-0.0625,0.0,0.0,0.0
1664889576125,-0.9970703,0.14160156,-0.06738281,-0.65625,-0.28125,-0.25,0.0,0.0,0.0
1664889576173,-0.99902344,0.14355469,-0.07910156,-1.15625,-0.28125,-0.125,0.0,0.0,0.0
1664889576195,-1.0087891,0.15234375,-0.068359375,-0.96875,0.03125,-0.0625,0.0,0.0,0.0
1664889576242,-0.9980469,0.140625,-0.078125,0.0625,-0.03125,-0.0625,0.0,0.0,0.0
1664889576286,-1.0009766,0.14648438,-0.06738281,1.125,-0.09375,-0.1875,-128.375,18.625,-128.3125
1664889576350,-0.9951172,0.14453125,-0.07519531,0.625,-0.15625,-0.125,0.0,0.0,0.0
1664889576376,-1.0029297,0.14550781,-0.08984375,1.0,-0.34375,-0.4375,0.0,0.0,0.0
1664889576394,-1.0009766,0.14355469,-0.07421875,0.25,-0.03125,-0.125,0.0,0.0,0.0
1664889576440,-1.0048828,0.13867188,-0.07421875,1.34375,0.21875,0.28125,0.0,0.0,0.0
1664889576486,-1.0,0.13867188,-0.078125,0.5,-0.03125,-0.25,0.0,0.0,0.0
1664889576531,-1.0058594,0.13769531,-0.078125,0.25,-0.40625,-0.375,0.0,0.0,0.0
1664889576555,-0.9970703,0.14550781,-0.068359375,-0.34375,-0.28125,-0.0625,0.0,0.0,0.0
1664889576598,-0.9970703,0.14257812,-0.06933594,0.375,0.40625,0.03125,0.0,0.0,0.0
1664889576643,-0.9941406,0.14550781,-0.076171875,0.875,0.28125,0.0,0.0,0.0,0.0
1664889576690,-0.9980469,0.14453125,-0.06933594,0.3125,0.09375,-0.3125,0.0,0.0,0.0
1664889576734,-0.9951172,0.14648438,-0.07714844,0.0,-0.21875,-0.3125,0.0,0.0,0.0
1664889576756,-0.9921875,0.15429688,-0.076171875,0.25,-0.15625,-0.0625,0.0,0.0,0.0
1664889576801,-0.99316406,0.15234375,-0.072265625,0.1875,0.21875,-0.0625,-128.125,17.3125,-127.6875
1664889576846,-0.9941406,0.14550781,-0.07421875,-0.21875,0.15625,-0.25,0.0,0.0,0.0
1664889576899,-1.0029297,0.14941406,-0.06738281,0.625,-0.03125,-0.125,0.0,0.0,0.0
1664889576913,-1.0029297,0.14648438,-0.07128906,-1.03125,0.15625,-0.25,0.0,0.0,0.0
1664889576980,-0.99609375,0.140625,-0.076171875,-0.03125,0.28125,-0.125,0.0,0.0,0.0
1664889577006,-1.0039062,0.1484375,-0.078125,0.8125,-0.21875,-0.375,0.0,0.0,0.0
1664889577049,-0.99121094,0.13574219,-0.08105469,0.6875,-0.09375,-0.1875,0.0,0.0,0.0
1664889577092,-1.0078125,0.15332031,-0.08300781,0.875,-0.21875,-0.1875,0.0,0.0,0.0
1664889577115,-0.9980469,0.14941406,-0.08984375,1.0,-0.15625,-0.1875,0.0,0.0,0.0
1664889577161,-0.99609375,0.14746094,-0.08105469,0.0625,-0.03125,-0.4375,0.0,0.0,0.0
1664889577207,-1.0009766,0.1484375,-0.076171875,0.0625,0.09375,-0.3125,0.0,0.0,0.0
1664889577275,-1.0048828,0.15039062,-0.06933594,-0.53125,-0.28125,-0.5,0.0,0.0,0.0
1664889577280,-1.0009766,0.14453125,-0.07421875,-1.15625,-0.53125,-0.5,0.0,0.0,0.0
1664889577317,-1.0019531,0.14257812,-0.07421875,-0.34375,-0.71875,-1.0,-128.875,16.5625,-126.625
1664889577364,-0.9863281,0.14550781,-0.06542969,-0.53125,-0.875,-0.8125,0.0,0.0,0.0
1664889577434,-0.99121094,0.13574219,-0.08105469,-0.78125,0.46875,-0.125,0.0,0.0,0.0
1664889577453,-1.0039062,0.15429688,-0.06738281,0.6875,0.625,-0.0625,0.0,0.0,0.0
1664889577476,-0.9941406,0.15039062,-0.06347656,0.9375,0.34375,0.0,0.0,0.0,0.0
1664889577530,-0.9970703,0.13671875,-0.06347656,0.3125,-0.28125,-0.5,0.0,0.0,0.0
1664889577568,-0.9980469,0.14355469,-0.06640625,0.125,-0.03125,-0.3125,0.0,0.0,0.0
1664889577609,-1.0058594,0.13964844,-0.0703125,-0.09375,0.21875,-0.375,0.0,0.0,0.0
1664889577633,-0.9951172,0.15429688,-0.07714844,0.0625,0.09375,-0.625,0.0,0.0,0.0
1664889577678,-0.9892578,0.15136719,-0.08203125,2.03125,0.34375,-0.0625,0.0,0.0,0.0
1664889577728,-0.9951172,0.13574219,-0.07128906,0.75,0.03125,-0.25,0.0,0.0,0.0
1664889577770,-0.9970703,0.14746094,-0.087890625,0.25,-0.03125,-0.4375,0.0,0.0,0.0
1664889577814,-1.0,0.140625,-0.07714844,0.25,0.40625,-0.375,-127.5,17.125,-126.5
1664889577837,-0.99902344,0.14355469,-0.08203125,0.0625,0.28125,-0.0625,0.0,0.0,0.0
1664889577881,-1.0,0.13476562,-0.09082031,0.0,0.15625,-0.125,0.0,0.0,0.0
1664889577932,-0.9980469,0.13867188,-0.07128906,-1.09375,-0.03125,-0.3125,0.0,0.0,0.0
1664889577971,-1.0009766,0.15527344,-0.07910156,-1.03125,-0.28125,-0.25,0.0,0.0,0.0
1664889577995,-0.9951172,0.14160156,-0.07128906,-0.90625,0.09375,-0.1875,0.0,0.0,0.0
1664889578042,-1.0009766,0.13964844,-0.06640625,-0.21875,0.15625,-0.0625,0.0,0.0,0.0
1664889578086,-1.0029297,0.13378906,-0.083984375,1.1875,-0.28125,-0.0625,0.0,0.0,0.0
1664889578129,-1.0029297,0.14355469,-0.08203125,1.46875,-0.46875,-0.3125,0.0,0.0,0.0
1664889578174,-1.0009766,0.1484375,-0.07910156,1.1875,-0.28125,-0.3125,0.0,0.0,0.0
1664889578198,-0.9902344,0.140625,-0.08886719,0.3125,-0.09375,-0.125,0.0,0.0,0.0
1664889578241,-1.0,0.14746094,-0.076171875,0.125,0.03125,0.15625,0.0,0.0,0.0
1664889578287,-1.0048828,0.13769531,-0.078125,-0.21875,-0.34375,-0.1875,0.0,0.0,0.0
1664889578331,-0.9892578,0.13964844,-0.07714844,-0.40625,-0.15625,-0.3125,-128.125,17.3125,-128.75
1664889578353,-1.0039062,0.14453125,-0.076171875,0.25,0.34375,0.03125,0.0,0.0,0.0
1664889578398,-0.9980469,0.13867188,-0.0625,0.0,0.40625,0.09375,0.0,0.0,0.0
1664889578443,-1.0068359,0.14648438,-0.07910156,1.46875,0.15625,0.03125,0.0,0.0,0.0
1664889578488,-0.9980469,0.15039062,-0.080078125,1.1875,-0.46875,-0.3125,0.0,0.0,0.0
1664889578517,-0.99609375,0.13964844,-0.076171875,0.5625,-0.28125,-0.125,0.0,0.0,0.0
1664889578556,-0.9863281,0.16015625,-0.08691406,-0.53125,-0.03125,0.0,0.0,0.0,0.0
1664889578601,-0.9873047,0.140625,-0.07910156,-0.53125,0.34375,0.03125,0.0,0.0,0.0
1664889578645,-1.0019531,0.14550781,-0.07421875,0.0625,0.03125,-0.375,0.0,0.0,0.0
1664889578690,-0.99902344,0.15234375,-0.09082031,0.75,0.21875,-0.0625,0.0,0.0,0.0
1664889578714,-1.0019531,0.14355469,-0.06542969,0.25,-0.09375,-0.0625,0.0,0.0,0.0
1664889578759,-0.9921875,0.14453125,-0.083984375,-0.28125,-0.28125,-0.4375,0.0,0.0,0.0
1664889578805,-1.0029297,0.14941406,-0.08105469,0.6875,0.03125,-0.1875,-130.0625,17.4375,-129.1875
1664889578870,-1.0048828,0.14160156,-0.07128906,0.0625,-0.03125,-0.125,0.0,0.0,0.0
1664889578874,-1.0,0.13867188,-0.0859375,-0.21875,-0.03125,-0.3125,0.0,0.0,0.0
1664889578921,-0.9970703,0.15332031,-0.08300781,-0.03125,0.09375,-0.3125,0.0,0.0,0.0
1664889578960,-1.0009766,0.14257812,-0.08105469,-0.34375,-0.15625,-0.125,0.0,0.0,0.0
1664889579006,-0.99609375,0.15039062,-0.08105469,0.0625,-0.21875,-0.1875,0.0,0.0,0.0
1664889579051,-1.0009766,0.14160156,-0.07128906,0.25,-0.03125,-0.375,0.0,0.0,0.0
1664889579073,-0.99609375,0.15625,-0.083984375,0.0625,-0.03125,-0.1875,0.0,0.0,0.0
1664889579119,-1.0029297,0.14746094,-0.07324219,0.5,-0.21875,-0.375,0.0,0.0,0.0
1664889579163,-0.9970703,0.13964844,-0.0703125,0.25,-0.21875,-0.0625,0.0,0.0,0.0
1664889579208,-1.0029297,0.14648438,-0.09082031,0.375,-0.15625,-0.375,0.0,0.0,0.0
1664889579230,-1.0029297,0.14453125,-0.068359375,0.625,-0.28125,-0.6875,0.0,0.0,0.0
1664889579276,-0.99121094,0.14550781,-0.08203125,0.25,-0.46875,-0.4375,0.0,0.0,0.0
1664889579321,-1.0009766,0.14550781,-0.08496094,-0.59375,-0.34375,-0.4375,-127.375,17.0,-128.0
1664889579366,-0.9951172,0.14355469,-0.08203125,-0.03125,-0.21875,-0.3125,0.0,0.0,0.0
1664889579411,-0.9941406,0.14355469,-0.078125,0.25,-0.46875,-0.5625,0.0,0.0,0.0
1664889579433,-1.0009766,0.14453125,-0.08105469,0.0625,-0.15625,-0.625,0.0,0.0,0.0
1664889579477,-0.9941406,0.15039062,-0.07421875,0.25,0.21875,-0.375,0.0,0.0,0.0
1664889579523,-0.9970703,0.140625,-0.0703125,0.125,-0.03125,-0.1875,0.0,0.0,0.0
1664889579572,-0.9951172,0.15429688,-0.07421875,0.375,-0.34375,-0.5625,0.0,0.0,0.0
1664889579638,-0.9892578,0.140625,-0.080078125,0.1875,-0.28125,-0.6875,0.0,0.0,0.0
1664889579644,-0.99609375,0.14648438,-0.07519531,0.0625,-0.09375,-0.25,0.0,0.0,0.0
1664889579680,-0.99316406,0.1484375,-0.07714844,-0.09375,0.09375,-0.25,0.0,0.0,0.0
1664889579730,-0.9970703,0.14648438,-0.0703125,0.3125,0.28125,-0.25,0.0,0.0,0.0
1664889579793,-1.0019531,0.13867188,-0.06738281,0.0625,-0.09375,-0.5625,-127.8125,17.5625,-127.25
1664889579799,-1.0009766,0.14160156,-0.064453125,0.0,-0.28125,-0.625,0.0,0.0,0.0
1664889579844,-1.0039062,0.14160156,-0.06933594,-0.21875,-0.21875,-0.5,0.0,0.0,0.0
1664889579883,-0.9980469,0.14355469,-0.07421875,-0.28125,-0.09375,-0.5,0.0,0.0,0.0
1664889579929,-1.0019531,0.14355469,-0.076171875,-0.09375,0.03125,-0.5,0.0,0.0,0.0
1664889579951,-1.0039062,0.13964844,-0.07519531,-0.09375,-0.15625,-0.625,0.0,0.0,0.0
1664889579996,-0.99609375,0.13964844,-0.083984375,-0.53125,-0.03125,-0.4375,0.0,0.0,0.0
1664889580042,-0.9951172,0.14648438,-0.0859375,-0.03125,0.34375,-0.375,0.0,0.0,0.0
1664889580091,-1.0029297,0.13867188,-0.078125,0.5,0.09375,-0.375,0.0,0.0,0.0
1664889580133,-0.9970703,0.15234375,-0.07421875,-0.46875,-0.03125,-0.375,0.0,0.0,0.0
1664889580155,-1.0058594,0.14257812,-0.083984375,0.0625,0.03125,-0.3125,0.0,0.0,0.0
1664889580203,-1.0039062,0.14648438,-0.06933594,0.0,-0.34375,-0.625,0.0,0.0,0.0
1664889580245,-1.0,0.13671875,-0.078125,-0.65625,0.03125,-0.4375,0.0,0.0,0.0
1664889580290,-0.99902344,0.14355469,-0.083984375,0.0625,0.28125,-0.1875,0.0,0.0,0.0
1664889580310,-1.0019531,0.12988281,-0.06933594,1.1875,-0.09375,-0.1875,-127.9375,17.4375,-128.4375
1664889580355,-1.0039062,0.140625,-0.072265625,0.625,-0.34375,-0.4375,0.0,0.0,0.0
1664889580402,-1.0,0.13574219,-0.07421875,-0.34375,-0.21875,-0.5625,0.0,0.0,0.0
1664889580447,-0.9902344,0.14160156,-0.09277344,-0.28125,-0.21875,-0.5,0.0,0.0,0.0
1664889580494,-0.9951172,0.14941406,-0.087890625,-0.21875,0.09375,-0.125,0.0,0.0,0.0
1664889580512,-0.99609375,0.13769531,-0.07421875,0.125,0.03125,-0.1875,0.0,0.0,0.0
1664889580560,-0.9980469,0.14257812,-0.09082031,0.0625,0.15625,0.0,0.0,0.0,0.0
1664889580606,-1.0058594,0.13378906,-0.0703125,0.0625,0.34375,-0.25,0.0,0.0,0.0
1664889580648,-1.0,0.13769531,-0.06933594,0.0,-0.09375,-0.1875,0.0,0.0,0.0
1664889580671,-0.9951172,0.13574219,-0.078125,0.875,-0.28125,-0.375,0.0,0.0,0.0
1664889580718,-1.0058594,0.14453125,-0.072265625,0.8125,-0.28125,-0.375,0.0,0.0,0.0
1664889580763,-1.0078125,0.14550781,-0.06640625,0.5625,-0.15625,-0.375,0.0,0.0,0.0
1664889580806,-0.9951172,0.13867188,-0.08691406,0.5,-0.15625,-0.25,-127.9375,16.0625,-129.1875
1664889580852,-0.99316406,0.14648438,-0.072265625,-0.03125,-0.09375,-0.3125,0.0,0.0,0.0
1664889580872,-0.9951172,0.13964844,-0.08203125,0.5625,-0.03125,-0.125,0.0,0.0,0.0
1664889580918,-1.0058594,0.140625,-0.08105469,0.75,-0.15625,-0.25,0.0,0.0,0.0
1664889580965,-1.0019531,0.13574219,-0.07519531,0.0,-0.28125,-0.3125,0.0,0.0,0.0
1664889581008,-0.9970703,0.14550781,-0.07910156,-0.34375,-0.28125,-0.3125,0.0,0.0,0.0
1664889581030,-0.99121094,0.13671875,-0.08203125,-0.53125,-0.34375,-0.1875,0.0,0.0,0.0
1664889581076,-1.0,0.13769531,-0.08496094,0.125,-0.21875,-0.375,0.0,0.0,0.0
1664889581126,-0.9951172,0.14746094,-0.083984375,-0.15625,-0.28125,-0.375,0.0,0.0,0.0
1664889581167,-1.0009766,0.14746094,-0.076171875,-0.09375,-0.28125,-0.25,0.0,0.0,0.0
1664889581210,-0.9951172,0.14648438,-0.064453125,-0.53125,-0.46875,-0.1875,0.0,0.0,0.0
1664889581236,-0.9980469,0.13476562,-0.083984375,0.25,-0.34375,-0.3125,0.0,0.0,0.0
1664889581277,-1.0029297,0.14257812,-0.08886719,0.5,-0.34375,-0.3125,0.0,0.0,0.0
1664889581323,-1.0039062,0.13183594,-0.07324219,0.0625,-0.71875,-0.375,-128.375,17.5625,-128.3125
1664889581369,-1.0009766,0.14355469,-0.09082031,-0.09375,-0.34375,-0.4375,0.0,0.0,0.0
1664889581390,-0.9902344,0.13964844,-0.076171875,-0.34375,-0.03125,-0.1875,0.0,0.0,0.0
1664889581437,-0.99902344,0.13378906,-0.06640625,0.625,-0.09375,0.0,0.0,0.0,0.0
1664889581481,-1.0019531,0.13769531,-0.07421875,0.625,-0.21875,-0.375,0.0,0.0,0.0
1664889581526,-1.0029297,0.13867188,-0.0703125,-0.03125,-0.28125,-0.625,0.0,0.0,0.0
1664889581552,-0.9951172,0.13867188,-0.0703125,0.0625,-0.46875,-0.5625,0.0,0.0,0.0
1664889581592,-1.0019531,0.140625,-0.07910156,0.5,-0.09375,-0.3125,0.0,0.0,0.0
1664889581639,-0.99902344,0.14746094,-0.068359375,1.0,0.09375,-0.3125,0.0,0.0,0.0
1664889581688,-0.9941406,0.13476562,-0.07128906,0.25,-0.09375,-0.25,0.0,0.0,0.0
1664889581730,-1.0,0.13769531,-0.07421875,-0.03125,0.21875,-0.3125,0.0,0.0,0.0
1664889581751,-1.0039062,0.14160156,-0.08203125,0.0625,0.09375,-0.1875,0.0,0.0,0.0
1664889581796,-1.0009766,0.13574219,-0.06933594,-0.53125,-0.21875,-0.3125,-129.0,16.375,-126.8125
1664889581843,-0.99902344,0.14746094,-0.078125,0.125,-0.15625,-0.5,0.0,0.0,0.0
1664889581930,-1.0029297,0.13378906,-0.06347656,0.4375,-0.28125,-0.375,0.0,0.0,0.0
1664889581935,-1.0058594,0.1328125,-0.07519531,0.5,-0.53125,-0.4375,0.0,0.0,0.0
1664889581959,-0.9951172,0.13964844,-0.07128906,-0.78125,-0.40625,-0.5,0.0,0.0,0.0
1664889581997,-0.9873047,0.14453125,-0.06347656,0.875,0.40625,-0.125,0.0,0.0,0.0
1664889582049,-1.0029297,0.13671875,-0.072265625,1.46875,-0.34375,-0.3125,0.0,0.0,0.0
1664889582090,-1.0078125,0.13964844,-0.076171875,-0.21875,-0.53125,-0.5,0.0,0.0,0.0
1664889582111,-1.0068359,0.13671875,-0.07324219,-1.8125,-0.40625,-0.5625,0.0,0.0,0.0
1664889582156,-0.9970703,0.14550781,-0.07519531,-1.625,-0.15625,-0.5625,0.0,0.0,0.0
1664889582202,-1.0039062,0.13769531,-0.07421875,-0.28125,-0.28125,-0.625,0.0,0.0,0.0
1664889582248,-1.0,0.13183594,-0.06542969,-0.09375,-0.46875,-0.625,0.0,0.0,0.0
1664889582269,-1.0009766,0.14160156,-0.06542969,0.625,-0.40625,-0.375,0.0,0.0,0.0
1664889582314,-0.9951172,0.14453125,-0.083984375,0.625,-0.46875,-0.6875,-129.4375,16.5625,-127.25
1664889582359,-0.9941406,0.140625,-0.06738281,0.5,0.09375,-0.4375,0.0,0.0,0.0
1664889582404,-0.9951172,0.14355469,-0.07421875,0.3125,0.53125,-0.25,0.0,0.0,0.0
1664889582449,-0.9921875,0.13769531,-0.06542969,0.6875,0.21875,-0.25,0.0,0.0,0.0
1664889582471,-1.0039062,0.1328125,-0.05859375,0.5625,0.28125,-0.375,0.0,0.0,0.0
1664889582516,-1.0,0.140625,-0.06347656,-0.34375,0.34375,-0.375,0.0,0.0,0.0
1664889582560,-1.0048828,0.13183594,-0.06347656,0.4375,0.40625,-0.5,0.0,0.0,0.0
1664889582633,-1.0,0.14160156,-0.06347656,0.1875,0.15625,-0.5625,0.0,0.0,0.0
1664889582638,-1.0048828,0.13867188,-0.07421875,-0.28125,0.03125,-0.4375,0.0,0.0,0.0
1664889582673,-0.99316406,0.13574219,-0.08203125,0.0625,0.09375,-0.3125,0.0,0.0,0.0
1664889582719,-1.0019531,0.13671875,-0.06933594,-0.03125,0.40625,-0.3125,0.0,0.0,0.0
1664889582763,-0.9951172,0.13867188,-0.08886719,-0.65625,0.21875,-0.3125,0.0,0.0,0.0
1664889582834,-0.9970703,0.13671875,-0.072265625,-0.65625,0.40625,-0.3125,-128.25,17.75,-126.8125
1664889582839,-0.9970703,0.13867188,-0.07519531,-0.15625,0.40625,-0.1875,0.0,0.0,0.0
1664889582875,-0.9980469,0.13183594,-0.072265625,-1.03125,0.15625,-0.3125,0.0,0.0,0.0
1664889582921,-1.0,0.13378906,-0.06933594,-0.15625,0.5625,-0.0625,0.0,0.0,0.0
1664889582966,-1.0048828,0.14355469,-0.07324219,0.1875,0.46875,0.0,0.0,0.0,0.0
1664889582990,-1.0078125,0.13769531,-0.07421875,0.375,0.09375,-0.0625,0.0,0.0,0.0
1664889583033,-0.9980469,0.13574219,-0.07324219,-0.46875,0.03125,-0.3125,0.0,0.0,0.0
1664889583078,-0.9941406,0.13867188,-0.07421875,-0.46875,0.8125,0.09375,0.0,0.0,0.0
1664889583148,-1.0029297,0.12988281,-0.05859375,0.75,0.875,0.21875,0.0,0.0,0.0
1664889583168,-1.0029297,0.140625,-0.0625,1.0625,0.40625,0.0,0.0,0.0,0.0
1664889583192,-1.0097656,0.12988281,-0.072265625,0.25,0.34375,-0.125,0.0,0.0,0.0
1664889583236,-1.0,0.140625,-0.091796875,0.1875,0.40625,-0.125,0.0,0.0,0.0
1664889583283,-1.0029297,0.13671875,-0.08105469,0.125,0.53125,0.28125,0.0,0.0,0.0
1664889583328,-0.9980469,0.12988281,-0.0703125,0.375,0.15625,0.0,-127.9375,17.125,-128.875
1664889583351,-0.9951172,0.13671875,-0.076171875,0.5625,0.15625,-0.375,0.0,0.0,0.0
1664889583393,-0.99902344,0.13574219,-0.08203125,1.0,0.21875,0.03125,0.0,0.0,0.0
1664889583441,-1.0068359,0.13769531,-0.078125,0.4375,0.34375,0.09375,0.0,0.0,0.0
1664889583488,-0.9941406,0.14355469,-0.08105469,0.875,0.40625,0.03125,0.0,0.0,0.0
1664889583529,-0.9980469,0.13867188,-0.07714844,0.9375,0.28125,0.09375,0.0,0.0,0.0
1664889583550,-0.9980469,0.140625,-0.064453125,0.0625,-0.03125,0.0,0.0,0.0,0.0
1664889583597,-1.0068359,0.14160156,-0.07421875,-0.34375,0.03125,0.03125,0.0,0.0,0.0
1664889583644,-0.99609375,0.140625,-0.08886719,-0.34375,0.5625,0.21875,0.0,0.0,0.0
1664889583688,-0.99121094,0.12792969,-0.072265625,0.8125,0.46875,0.40625,0.0,0.0,0.0
1664889583708,-1.0136719,0.14257812,-0.091796875,1.0,0.09375,0.0,0.0,0.0,0.0
1664889583752,-0.9951172,0.13476562,-0.078125,0.25,-0.34375,-0.0625,0.0,0.0,0.0
1664889583800,-0.98535156,0.12792969,-0.09277344,0.0,0.09375,0.34375,-127.8125,16.25,-128.0
1664889583845,-0.99316406,0.14453125,-0.08984375,0.8125,0.5625,0.71875,0.0,0.0,0.0
1664889583891,-1.0058594,0.1328125,-0.064453125,0.375,0.28125,0.28125,0.0,0.0,0.0
1664889583912,-1.0039062,0.14160156,-0.07519531,-0.21875,-0.28125,-0.125,0.0,0.0,0.0
1664889583957,-0.9902344,0.14257812,-0.076171875,0.25,-0.09375,0.03125,0.0,0.0,0.0
1664889584000,-0.99902344,0.13867188,-0.08203125,0.75,0.21875,0.28125,0.0,0.0,0.0
1664889584046,-1.0039062,0.13378906,-0.072265625,0.125,0.09375,0.03125,0.0,0.0,0.0
1664889584072,-1.0029297,0.13769531,-0.07324219,0.375,-0.40625,0.09375,0.0,0.0,0.0
1664889584136,-1.0019531,0.14550781,-0.0859375,0.125,-0.34375,0.09375,0.0,0.0,0.0
1664889584159,-1.0048828,0.14648438,-0.08691406,0.375,-0.59375,0.0,0.0,0.0,0.0
1664889584203,-0.99902344,0.13769531,-0.08984375,-0.59375,-0.21875,0.15625,0.0,0.0,0.0
1664889584250,-0.9970703,0.13964844,-0.0859375,-0.28125,0.09375,0.28125,0.0,0.0,0.0
1664889584275,-1.0,0.13378906,-0.080078125,-0.09375,-0.21875,-0.125,0.0,0.0,0.0
1664889584338,-1.0068359,0.12988281,-0.072265625,-0.40625,-0.15625,-0.1875,-128.875,18.0625,-128.3125
1664889584360,-1.0029297,0.13867188,-0.076171875,-0.53125,-0.34375,-0.0625,0.0,0.0,0.0
1664889584405,-1.0029297,0.13378906,-0.0703125,0.1875,-0.46875,-0.0625,0.0,0.0,0.0
1664889584431,-1.0097656,0.13964844,-0.07324219,0.25,-0.65625,-0.25,0.0,0.0,0.0
1664889584474,-1.0009766,0.13183594,-0.06347656,0.0625,-0.71875,-0.25,0.0,0.0,0.0
1664889584520,-0.99316406,0.12890625,-0.080078125,-0.90625,-0.15625,-0.4375,0.0,0.0,0.0
1664889584566,-1.0019531,0.14550781,-0.07910156,0.1875,0.28125,0.03125,0.0,0.0,0.0
1664889584589,-0.9970703,0.140625,-0.07421875,0.25,0.40625,0.15625,0.0,0.0,0.0
1664889584630,-0.9941406,0.13867188,-0.072265625,-0.03125,-0.15625,-0.125,0.0,0.0,0.0
1664889584678,-1.0029297,0.14160156,-0.068359375,0.25,-0.21875,-0.125,0.0,0.0,0.0
1664889584720,-0.99609375,0.13476562,-0.06640625,-0.34375,-0.21875,-0.125,0.0,0.0,0.0
1664889584766,-1.0,0.13769531,-0.07128906,0.25,0.40625,0.15625,0.0,0.0,0.0
1664889584788,-0.9921875,0.13476562,-0.06542969,0.3125,0.53125,0.03125,-129.3125,16.6875,-128.4375
1664889584834,-1.0048828,0.14550781,-0.07910156,0.4375,-0.09375,0.03125,0.0,0.0,0.0
1664889584881,-0.99121094,0.14550781,-0.06933594,-0.46875,0.03125,-0.125,0.0,0.0,0.0
1664889584945,-1.0078125,0.13378906,-0.07519531,-0.03125,0.53125,0.09375,0.0,0.0,0.0
1664889584950,-0.9980469,0.13769531,-0.0859375,0.375,0.53125,0.03125,0.0,0.0,0.0
1664889584990,-1.0048828,0.13476562,-0.08105469,0.4375,0.34375,-0.125,0.0,0.0,0.0
1664889585036,-1.0039062,0.13769531,-0.064453125,0.625,0.21875,-0.1875,0.0,0.0,0.0
1664889585083,-0.99902344,0.1328125,-0.076171875,0.125,0.21875,0.03125,0.0,0.0,0.0
1664889585126,-1.0019531,0.14355469,-0.09082031,0.3125,0.53125,0.15625,0.0,0.0,0.0
1664889585151,-1.0,0.13476562,-0.07421875,0.875,0.28125,-0.125,0.0,0.0,0.0
1664889585193,-1.0,0.1328125,-0.06640625,0.5,0.09375,-0.3125,0.0,0.0,0.0
1664889585260,-1.0019531,0.13769531,-0.08691406,-0.28125,0.28125,0.09375,0.0,0.0,0.0
1664889585288,-0.99609375,0.1484375,-0.07128906,-0.65625,0.75,0.21875,0.0,0.0,0.0
1664889585329,-1.0068359,0.13085938,-0.076171875,0.125,0.46875,0.09375,-128.125,18.625,-128.3125
1664889585353,-1.0058594,0.13476562,-0.07714844,-0.03125,-0.03125,-0.1875,0.0,0.0,0.0
1664889585396,-1.0009766,0.13574219,-0.09082031,0.0,0.40625,-0.0625,0.0,0.0,0.0
1664889585441,-1.0019531,0.13378906,-0.068359375,0.5625,0.15625,0.0,0.0,0.0,0.0
1664889585486,-0.99121094,0.13671875,-0.07910156,0.1875,0.15625,0.0,0.0,0.0,0.0
1664889585509,-0.99902344,0.14550781,-0.08203125,0.4375,0.53125,0.03125,0.0,0.0,0.0
1664889585554,-1.0019531,0.13378906,-0.07128906,1.1875,0.34375,0.09375,0.0,0.0,0.0
1664889585601,-1.0058594,0.13769531,-0.06933594,0.5625,0.28125,0.03125,0.0,0.0,0.0
1664889585645,-1.0009766,0.13867188,-0.08691406,0.125,0.53125,0.0,0.0,0.0,0.0
1664889585667,-1.0039062,0.13867188,-0.0859375,-0.03125,0.21875,0.03125,0.0,0.0,0.0
1664889585711,-0.99902344,0.1328125,-0.087890625,0.0,0.21875,-0.0625,0.0,0.0,0.0
1664889585755,-1.0,0.13964844,-0.07324219,0.25,0.46875,-0.0625,0.0,0.0,0.0
1664889585799,-1.0,0.1328125,-0.07910156,-0.03125,0.46875,0.09375,-127.5,17.4375,-128.4375
1664889585848,-1.0029297,0.140625,-0.09277344,0.0625,0.625,0.09375,0.0,0.0,0.0
1664889585868,-0.9921875,0.13769531,-0.076171875,0.5625,0.53125,0.03125,0.0,0.0,0.0
1664889585915,-0.9970703,0.1328125,-0.087890625,0.75,0.09375,-0.1875,0.0,0.0,0.0
1664889585958,-0.99609375,0.12890625,-0.08984375,0.4375,0.40625,0.09375,0.0,0.0,0.0
1664889586006,-0.9970703,0.14648438,-0.076171875,0.1875,0.21875,-0.125,0.0,0.0,0.0
1664889586027,-1.0029297,0.13964844,-0.076171875,1.34375,0.28125,0.40625,0.0,0.0,0.0
1664889586070,-1.0029297,0.12597656,-0.07421875,1.1875,0.09375,0.53125,0.0,0.0,0.0
1664889586115,-1.0019531,0.13183594,-0.07519531,0.375,0.03125,0.09375,0.0,0.0,0.0
1664889586167,-0.99609375,0.13964844,-0.08886719,0.0625,-0.03125,-0.125,0.0,0.0,0.0
1664889586206,-1.0019531,0.13964844,-0.083984375,-0.21875,0.09375,-0.0625,0.0,0.0,0.0
1664889586230,-0.99609375,0.14257812,-0.080078125,-0.21875,-0.21875,-0.0625,0.0,0.0,0.0
1664889586275,-0.99902344,0.13085938,-0.07910156,-0.65625,-0.03125,0.0,0.0,0.0,0.0
1664889586321,-1.0019531,0.13574219,-0.076171875,-0.84375,0.15625,0.28125,-129.75,17.125,-128.875
1664889586362,-0.99316406,0.13574219,-0.08105469,-0.46875,-0.21875,0.15625,0.0,0.0,0.0
1664889586385,-0.9970703,0.13964844,-0.06542969,-0.46875,-0.15625,0.21875,0.0,0.0,0.0
1664889586430,-1.0048828,0.14453125,-0.076171875,-0.03125,0.03125,0.15625,0.0,0.0,0.0
1664889586479,-1.0078125,0.14550781,-0.083984375,0.0,0.03125,-0.125,0.0,0.0,0.0
1664889586522,-1.0019531,0.13867188,-0.08105469,0.0,-0.03125,0.03125,0.0,0.0,0.0
1664889586566,-0.9951172,0.14160156,-0.080078125,0.3125,-0.34375,0.09375,0.0,0.0,0.0
1664889586588,-1.0019531,0.1484375,-0.07714844,0.375,-0.15625,0.03125,0.0,0.0,0.0
1664889586638,-0.9980469,0.14453125,-0.076171875,1.125,0.21875,0.28125,0.0,0.0,0.0
1664889586685,-1.0,0.13574219,-0.07714844,0.9375,-0.03125,0.03125,0.0,0.0,0.0
1664889586722,-1.0048828,0.13574219,-0.08691406,-0.21875,-0.21875,-0.25,0.0,0.0,0.0
1664889586746,-1.0,0.140625,-0.08300781,-0.40625,-0.03125,0.09375,0.0,0.0,0.0
1664889586792,-0.99902344,0.13574219,-0.083984375,0.0,0.03125,0.21875,-127.1875,17.75,-127.5625
1664889586837,-1.0009766,0.1328125,-0.08691406,-0.03125,-0.21875,-0.125,0.0,0.0,0.0
1664889586881,-0.9970703,0.14453125,-0.080078125,0.0625,-0.03125,-0.125,0.0,0.0,0.0
1664889586930,-1.0058594,0.14746094,-0.08496094,0.1875,-0.15625,0.0,0.0,0.0,0.0
1664889586949,-0.99316406,0.13085938,-0.076171875,-0.34375,-0.15625,0.09375,0.0,0.0,0.0
1664889586994,-0.9921875,0.13671875,-0.068359375,0.375,0.21875,0.0,0.0,0.0,0.0
1664889587037,-1.0009766,0.12890625,-0.07519531,0.4375,-0.40625,-0.1875,0.0,0.0,0.0
1664889587083,-1.0019531,0.13867188,-0.064453125,-0.15625,-0.53125,-0.375,0.0,0.0,0.0
1664889587111,-0.99902344,0.12792969,-0.08300781,-0.53125,-0.15625,-0.125,0.0,0.0,0.0
1664889587174,-0.9970703,0.14453125,-0.07421875,-0.21875,0.21875,-0.0625,0.0,0.0,0.0
1664889587197,-1.0029297,0.13671875,-0.064453125,-0.15625,0.09375,-0.125,0.0,0.0,0.0
1664889587242,-1.0068359,0.13964844,-0.08203125,-0.34375,-0.09375,-0.3125,0.0,0.0,0.0
1664889587286,-1.0029297,0.13476562,-0.072265625,0.125,0.34375,-0.1875,0.0,0.0,0.0
1664889587308,-1.0,0.14160156,-0.080078125,0.6875,0.34375,0.0,-128.125,17.5625,-128.0
1664889587355,-0.9951172,0.13769531,-0.07128906,0.5,0.09375,-0.1875,0.0,0.0,0.0
1664889587399,-1.0019531,0.14453125,-0.07714844,0.0625,-0.09375,-0.1875,0.0,0.0,0.0
1664889587446,-1.0009766,0.14160156,-0.07421875,-0.03125,-0.21875,-0.25,0.0,0.0,0.0
1664889587471,-0.99609375,0.13671875,-0.06933594,-0.15625,0.09375,-0.125,0.0,0.0,0.0
1664889587513,-0.9941406,0.15039062,-0.076171875,-1.09375,0.28125,-0.25,0.0,0.0,0.0
1664889587557,-0.9980469,0.12890625,-0.07714844,0.5,0.8125,0.09375,0.0,0.0,0.0
1664889587634,-1.0087891,0.13867188,-0.072265625,0.3125,0.40625,-0.0625,0.0,0.0,0.0
1664889587641,-0.9970703,0.13867188,-0.07421875,0.5625,0.09375,-0.25,0.0,0.0,0.0
1664889587671,-1.0019531,0.13378906,-0.07128906,-0.28125,0.21875,-0.25,0.0,0.0,0.0
1664889587715,-0.9941406,0.13769531,-0.08203125,-0.03125,0.46875,-0.125,0.0,0.0,0.0
1664889587761,-1.0,0.13378906,-0.078125,1.1875,0.6875,-0.0625,0.0,0.0,0.0
1664889587804,-0.9941406,0.13378906,-0.059570312,0.8125,0.40625,-0.125,-128.6875,18.5,-129.1875
1664889587827,-1.0039062,0.12890625,-0.06933594,0.9375,0.21875,-0.1875,0.0,0.0,0.0
1664889587870,-1.0087891,0.13671875,-0.07128906,0.375,0.34375,-0.25,0.0,0.0,0.0
1664889587916,-1.0087891,0.12792969,-0.07714844,0.5625,0.34375,-0.125,0.0,0.0,0.0
1664889587962,-1.0,0.13867188,-0.072265625,1.0,0.53125,-0.125,0.0,0.0,0.0
1664889587984,-0.9951172,0.13671875,-0.068359375,0.5625,0.21875,-0.25,0.0,0.0,0.0
1664889588032,-1.0039062,0.13769531,-0.07714844,0.5,-0.03125,-0.125,0.0,0.0,0.0
1664889588076,-0.9902344,0.14355469,-0.07519531,-0.53125,0.15625,-0.25,0.0,0.0,0.0
1664889588120,-1.0019531,0.14257812,-0.061523438,0.125,0.46875,0.03125,0.0,0.0,0.0
1664889588163,-1.0,0.13671875,-0.06640625,0.625,-0.28125,-0.125,0.0,0.0,0.0
1664889588185,-1.0078125,0.12792969,-0.06542969,-0.40625,-0.21875,-0.375,0.0,0.0,0.0
1664889588230,-1.0019531,0.13964844,-0.09472656,0.375,-0.03125,-0.3125,0.0,0.0,0.0
1664889588276,-0.9921875,0.14550781,-0.07421875,1.25,-0.03125,-0.25,0.0,0.0,0.0
1664889588324,-1.0039062,0.14160156,-0.07128906,0.8125,0.53125,-0.0625,-128.875,16.25,-127.6875
1664889588347,-1.0029297,0.14160156,-0.08203125,1.59375,0.28125,0.21875,0.0,0.0,0.0
1664889588390,-1.0,0.12988281,-0.08105469,1.53125,-0.21875,0.53125,0.0,0.0,0.0
1664889588433,-0.99121094,0.12011719,-0.09472656,2.53125,-0.71875,-0.375,0.0,0.0,0.0
1664889588480,-1.0058594,0.13476562,-0.076171875,1.71875,-0.34375,-0.375,0.0,0.0,0.0
1664889588524,-1.0009766,0.12695312,-0.072265625,1.34375,0.34375,0.0,0.0,0.0,0.0
1664889588545,-1.0009766,0.12695312,-0.07910156,1.59375,0.09375,0.09375,0.0,0.0,0.0
1664889588590,-1.0039062,0.13183594,-0.07128906,1.34375,-0.21875,0.21875,0.0,0.0,0.0
1664889588637,-0.99121094,0.13964844,-0.091796875,0.9375,-0.40625,0.09375,0.0,0.0,0.0
1664889588680,-1.0029297,0.140625,-0.0859375,0.9375,0.03125,0.15625,0.0,0.0,0.0
1664889588704,-1.0,0.12695312,-0.05078125,0.75,0.03125,0.59375,0.0,0.0,0.0
1664889588747,-1.0019531,0.123046875,-0.07714844,0.1875,-0.34375,0.53125,0.0,0.0,0.0
1664889588796,-1.0097656,0.13574219,-0.07910156,0.3125,-0.09375,0.28125,-128.6875,16.6875,-126.8125
1664889588839,-1.0019531,0.15332031,-0.07910156,0.25,-0.28125,0.21875,0.0,0.0,0.0
1664889588907,-0.9941406,0.1484375,-0.07910156,-0.34375,0.34375,0.28125,0.0,0.0,0.0
1664889588916,-1.0058594,0.1484375,-0.07714844,0.5625,0.8125,0.53125,0.0,0.0,0.0
1664889588950,-1.0029297,0.13378906,-0.06640625,-0.40625,0.5625,0.84375,0.0,0.0,0.0
1664889588995,-0.99316406,0.12207031,-0.0859375,0.1875,0.8125,1.15625,0.0,0.0,0.0
1664889589042,-0.99316406,0.13574219,-0.07714844,1.25,1.0,0.84375,0.0,0.0,0.0
1664889589064,-0.9970703,0.13964844,-0.078125,2.53125,1.6875,0.90625,0.0,0.0,0.0
1664889589109,-1.0039062,0.13378906,-0.076171875,0.9375,1.1875,1.03125,0.0,0.0,0.0
1664889589156,-0.99902344,0.14355469,-0.07910156,1.59375,0.8125,1.28125,0.0,0.0,0.0
1664889589199,-0.9951172,0.13378906,-0.08300781,1.25,1.4375,1.09375,0.0,0.0,0.0
1664889589249,-1.0019531,0.13085938,-0.07128906,1.59375,1.4375,1.28125,0.0,0.0,0.0
1664889589290,-1.0019531,0.13769531,-0.08886719,2.8125,1.8125,1.375,0.0,0.0,0.0
1664889589318,-1.0068359,0.14355469,-0.08105469,2.46875,0.6875,1.15625,-126.625,17.0,-128.3125
1664889589359,-0.99902344,0.15234375,-0.08105469,0.875,0.15625,1.15625,0.0,0.0,0.0
1664889589403,-0.9941406,0.12988281,-0.099609375,1.0625,0.625,0.90625,0.0,0.0,0.0
1664889589423,-0.9951172,0.14355469,-0.09667969,1.96875,1.125,0.96875,0.0,0.0,0.0
1664889589468,-1.0107422,0.15332031,-0.08105469,2.34375,1.0625,1.6875,0.0,0.0,0.0
1664889589516,-0.9921875,0.13671875,-0.07324219,-1.09375,0.21875,1.15625,0.0,0.0,0.0
1664889589568,-0.99609375,0.12597656,-0.07910156,1.0625,0.8125,0.71875,0.0,0.0,0.0
1664889589604,-1.0107422,0.16503906,-0.087890625,2.46875,1.25,0.46875,0.0,0.0,0.0
1664889589626,-0.99121094,0.14746094,-0.06738281,1.90625,0.46875,1.4375,0.0,0.0,0.0
1664889589671,-0.9951172,0.15039062,-0.078125,-1.09375,0.75,1.3125,0.0,0.0,0.0
1664889589718,-1.0048828,0.14550781,-0.08203125,1.0625,1.375,1.6875,0.0,0.0,0.0
1664889589763,-0.9941406,0.14160156,-0.07421875,2.625,0.5625,1.6875,0.0,0.0,0.0
1664889589783,-0.99609375,0.13476562,-0.08496094,0.0625,-0.28125,1.6875,-129.0,17.4375,-130.25
1664889589828,-0.99316406,0.14453125,-0.0859375,-0.09375,0.5625,1.4375,0.0,0.0,0.0
1664889589875,-1.0078125,0.14355469,-0.07128906,3.1875,0.625,1.5625,0.0,0.0,0.0
1664889589918,-0.9941406,0.14257812,-0.072265625,1.28125,-0.875,0.90625,0.0,0.0,0.0
1664889589963,-0.9970703,0.15625,-0.08203125,0.625,-0.53125,1.21875,0.0,0.0,0.0
1664889589986,-1.0058594,0.15332031,-0.1015625,3.25,-1.1875,1.4375,0.0,0.0,0.0
1664889590033,-1.0019531,0.16796875,-0.08105469,2.875,-2.21875,0.65625,0.0,0.0,0.0
1664889590079,-0.9941406,0.15527344,-0.09375,1.84375,-2.59375,0.71875,0.0,0.0,0.0
1664889590120,-0.9824219,0.16894531,-0.0859375,1.46875,-2.53125,0.65625,0.0,0.0,0.0
1664889590143,-0.9980469,0.15820312,-0.08203125,1.65625,-2.53125,0.28125,0.0,0.0,0.0
1664889590192,-0.9970703,0.15527344,-0.07324219,1.59375,-3.34375,0.15625,0.0,0.0,0.0
1664889590234,-0.99902344,0.16113281,-0.07128906,2.15625,-3.6875,0.0,0.0,0.0,0.0
1664889590302,-1.0117188,0.16992188,-0.083984375,1.1875,-3.875,-1.125,0.0,0.0,0.0
1664889590323,-0.96484375,0.18554688,-0.078125,-0.34375,-3.4375,-1.0625,-127.8125,17.5625,-128.75
1664889590349,-1.0,0.16113281,-0.10449219,-1.03125,-4.71875,-0.0625,0.0,0.0,0.0
1664889590393,-0.9980469,0.18554688,-0.095703125,-2.5625,-4.5625,-0.875,0.0,0.0,0.0
1664889590436,-0.98339844,0.16015625,-0.10253906,-2.90625,-3.625,-0.6875,0.0,0.0,0.0
1664889590480,-1.0087891,0.17578125,-0.095703125,0.5,-2.78125,-0.875,0.0,0.0,0.0
1664889590508,-0.99609375,0.17480469,-0.07910156,0.0625,-2.71875,-0.75,0.0,0.0,0.0
1664889590551,-0.9980469,0.17285156,-0.08496094,-1.375,-2.46875,-0.6875,0.0,0.0,0.0
1664889590594,-1.0068359,0.16894531,-0.09082031,-0.28125,-3.5625,-0.375,0.0,0.0,0.0
1664889590646,-1.0,0.15722656,-0.072265625,0.0625,-4.0625,-0.3125,0.0,0.0,0.0
